dot_values,colour_values,participant,.thisRepN,.thisTrialN,.thisN,.thisIndex,response,response_time,date,
nan,Yellow,110,0,0,0,0,,,2016_Aug_16_1429,
1.0,LightPink,110,0,1,1,1,m,0.207571983337,2016_Aug_16_1429,
8.0,Brown,110,0,2,2,2,,,2016_Aug_16_1429,
6.0,Purple,110,0,3,3,3,m,0.0558388233185,2016_Aug_16_1429,
5.0,Orange,110,0,4,4,4,m,0.015771150589,2016_Aug_16_1429,
7.0,DarkGray,110,0,5,5,5,m,0.360039949417,2016_Aug_16_1429,
3.0,Blue,110,0,6,6,6,m,0.263623952866,2016_Aug_16_1429,
9.0,Red,110,0,7,7,7,m,0.239784955978,2016_Aug_16_1429,
2.0,Green,110,0,8,8,8,m,0.0478749275208,2016_Aug_16_1429,
4.0,Purple,110,0,9,9,9,m,0.271757125854,2016_Aug_16_1429,
1.0,Orange,110,0,10,10,10,m,0.247584819794,2016_Aug_16_1429,
8.0,DarkGray,110,0,11,11,11,m,0.127810001373,2016_Aug_16_1429,
6.0,Blue,110,0,12,12,12,m,0.295772790909,2016_Aug_16_1429,
5.0,Red,110,0,13,13,13,m,0.263965845108,2016_Aug_16_1429,
7.0,Green,110,0,14,14,14,m,0.11961889267,2016_Aug_16_1429,
3.0,Yellow,110,0,15,15,15,m,0.223788976669,2016_Aug_16_1429,
9.0,LightPink,110,0,16,16,16,m,0.287592172623,2016_Aug_16_1429,
2.0,Brown,110,0,17,17,17,m,0.295804023743,2016_Aug_16_1429,
4.0,Blue,110,0,18,18,18,m,0.279794216156,2016_Aug_16_1429,
5.0,Red,110,0,19,19,19,m,0.199526786804,2016_Aug_16_1429,
nan,nan,110,0,20,20,20,m,0.239323139191,2016_Aug_16_1429,
7.0,Green,110,0,21,21,21,m,0.495818853378,2016_Aug_16_1429,
3.0,Purple,110,0,22,22,22,m,0.279742956161,2016_Aug_16_1429,
1.0,Orange,110,0,23,23,23,m,0.047699213028,2016_Aug_16_1429,
8.0,DarkGray,110,0,24,24,24,m,0.335466861725,2016_Aug_16_1429,
6.0,Yellow,110,0,25,25,25,m,0.271479129791,2016_Aug_16_1429,
5.0,LightPink,110,0,26,26,26,m,0.0797159671783,2016_Aug_16_1429,
7.0,Brown,110,0,27,27,27,m,0.343686103821,2016_Aug_16_1429,
3.0,Purple,110,0,28,28,28,m,0.247383117676,2016_Aug_16_1429,
1.0,Orange,110,0,29,29,29,m,0.255681991577,2016_Aug_16_1429,
8.0,DarkGray,110,0,30,30,30,m,0.271335840225,2016_Aug_16_1429,
6.0,Yellow,110,0,31,31,31,m,0.31934094429,2016_Aug_16_1429,
9.0,LightPink,110,0,32,32,32,m,0.263350009918,2016_Aug_16_1429,
2.0,Brown,110,0,33,33,33,m,0.31965303421,2016_Aug_16_1429,
4.0,Blue,110,0,34,34,34,m,0.263298988342,2016_Aug_16_1429,
1.0,Red,110,0,35,35,35,m,0.239451885223,2016_Aug_16_1429,
8.0,Green,110,0,36,36,36,m,0.239629030228,2016_Aug_16_1429,
6.0,Yellow,110,0,37,37,37,m,0.215301990509,2016_Aug_16_1429,
9.0,LightPink,110,0,38,38,38,m,0.0636270046234,2016_Aug_16_1429,
2.0,Brown,110,0,39,39,39,m,0.0395140647888,2016_Aug_16_1429,
4.0,Purple,110,0,40,40,40,m,0.247526884079,2016_Aug_16_1429,
5.0,Orange,110,0,41,41,41,m,0.27929019928,2016_Aug_16_1429,
7.0,DarkGray,110,0,42,42,42,m,0.295588970184,2016_Aug_16_1429,
3.0,Blue,110,0,43,43,43,m,0.303600072861,2016_Aug_16_1429,
9.0,Red,110,0,44,44,44,m,0.231319904327,2016_Aug_16_1429,
2.0,Green,110,0,45,45,45,m,0.151197910309,2016_Aug_16_1429,
4.0,Purple,110,0,46,46,46,m,0.279234886169,2016_Aug_16_1429,
5.0,Orange,110,0,47,47,47,m,0.215362071991,2016_Aug_16_1429,
7.0,DarkGray,110,0,48,48,48,m,0.247328996658,2016_Aug_16_1429,
3.0,Yellow,110,0,49,49,49,m,0.0951778888702,2016_Aug_16_1429,
9.0,LightPink,110,0,50,50,50,m,0.0715458393097,2016_Aug_16_1429,
2.0,Brown,110,0,51,51,51,,,2016_Aug_16_1429,
4.0,Purple,110,0,52,52,52,,,2016_Aug_16_1429,
nan,nan,110,0,53,53,53,m,0.183400154114,2016_Aug_16_1429,
1.0,Orange,110,0,54,54,54,m,0.359317064285,2016_Aug_16_1429,
8.0,DarkGray,110,0,55,55,55,m,0.271224021912,2016_Aug_16_1429,
6.0,Yellow,110,0,56,56,56,m,0.0151929855347,2016_Aug_16_1429,
9.0,LightPink,110,0,57,57,57,m,0.255419969559,2016_Aug_16_1429,
2.0,Brown,110,0,58,58,58,m,0.223340988159,2016_Aug_16_1429,
4.0,Blue,110,0,59,59,59,m,0.255051851273,2016_Aug_16_1429,
1.0,Red,110,0,60,60,60,m,0.0553359985352,2016_Aug_16_1429,
8.0,Green,110,0,61,61,61,m,0.279042959213,2016_Aug_16_1429,
nan,nan,110,0,62,62,62,z,0.447313070297,2016_Aug_16_1429,
6.0,Purple,110,0,63,63,63,m,0.310926914215,2016_Aug_16_1429,
9.0,Orange,110,0,64,64,64,m,0.343178033829,2016_Aug_16_1429,
2.0,DarkGray,110,0,65,65,65,m,0.206997871399,2016_Aug_16_1429,
4.0,Blue,110,0,66,66,66,m,0.119286060333,2016_Aug_16_1429,
5.0,Red,110,0,67,67,67,m,0.183022022247,2016_Aug_16_1429,
7.0,Green,110,0,68,68,68,m,0.031210899353,2016_Aug_16_1429,
3.0,Yellow,110,0,69,69,69,m,0.270936012268,2016_Aug_16_1429,
1.0,LightPink,110,0,70,70,70,m,0.279223918915,2016_Aug_16_1429,
8.0,Brown,110,0,71,71,71,m,0.0711410045624,2016_Aug_16_1429,
6.0,Blue,110,0,72,72,72,m,0.215022087097,2016_Aug_16_1429,
9.0,Red,110,0,73,73,73,m,0.295083999634,2016_Aug_16_1429,
2.0,Green,110,0,74,74,74,,,2016_Aug_16_1429,
4.0,Yellow,110,0,75,75,75,m,0.278782844543,2016_Aug_16_1429,
5.0,LightPink,110,0,76,76,76,m,0.0390820503235,2016_Aug_16_1429,
7.0,Brown,110,0,77,77,77,,,2016_Aug_16_1429,
3.0,Blue,110,0,78,78,78,m,0.318983793259,2016_Aug_16_1429,
9.0,Red,110,0,79,79,79,m,0.31094789505,2016_Aug_16_1429,
2.0,Green,110,0,80,80,80,m,0.0707240104675,2016_Aug_16_1429,
4.0,Purple,110,0,81,81,81,,,2016_Aug_16_1429,
5.0,Orange,110,0,82,82,82,m,0.375080823898,2016_Aug_16_1429,
7.0,DarkGray,110,0,83,83,83,m,0.103026151657,2016_Aug_16_1429,
3.0,Yellow,110,0,84,84,84,m,0.0950798988342,2016_Aug_16_1429,
9.0,LightPink,110,0,85,85,85,,,2016_Aug_16_1429,
2.0,Brown,110,0,86,86,86,m,0.390985965729,2016_Aug_16_1429,
4.0,Purple,110,0,87,87,87,m,0.175053119659,2016_Aug_16_1429,
1.0,Orange,110,0,88,88,88,,,2016_Aug_16_1429,
8.0,DarkGray,110,0,89,89,89,m,0.334980010986,2016_Aug_16_1429,
6.0,Blue,110,0,90,90,90,m,0.118668079376,2016_Aug_16_1429,
5.0,Red,110,0,91,91,91,m,0.046660900116,2016_Aug_16_1429,
7.0,Green,110,0,92,92,92,m,0.246771097183,2016_Aug_16_1429,
3.0,Purple,110,0,93,93,93,m,0.262648105621,2016_Aug_16_1429,
9.0,Orange,110,0,94,94,94,m,0.262791872025,2016_Aug_16_1429,
2.0,DarkGray,110,0,95,95,95,,,2016_Aug_16_1429,
4.0,Blue,110,0,96,96,96,m,0.254884004593,2016_Aug_16_1429,
nan,nan,110,0,97,97,97,z,0.366620063782,2016_Aug_16_1429,
1.0,Red,110,0,98,98,98,m,0.254456996918,2016_Aug_16_1429,
8.0,Green,110,0,99,99,99,m,0.0468018054962,2016_Aug_16_1429,
6.0,Purple,110,0,100,100,100,m,0.0467960834503,2016_Aug_16_1429,
5.0,Orange,110,0,101,101,101,,,2016_Aug_16_1429,
7.0,DarkGray,110,0,102,102,102,,,2016_Aug_16_1429,
3.0,Blue,110,0,103,103,103,m,0.462465047836,2016_Aug_16_1429,
9.0,Red,110,0,104,104,104,m,0.262396097183,2016_Aug_16_1429,
2.0,Green,110,0,105,105,105,m,0.0705549716949,2016_Aug_16_1429,
4.0,Purple,110,0,106,106,106,m,0.134762048721,2016_Aug_16_1429,
5.0,Orange,110,0,107,107,107,m,0.230652809143,2016_Aug_16_1429,
7.0,DarkGray,110,0,108,108,108,m,0.238684892654,2016_Aug_16_1429,
3.0,Yellow,110,0,109,109,109,m,0.254411935806,2016_Aug_16_1429,
9.0,LightPink,110,0,110,110,110,m,0.262479066849,2016_Aug_16_1429,
2.0,Brown,110,0,111,111,111,m,0.230713844299,2016_Aug_16_1429,
4.0,Purple,110,0,112,112,112,m,0.262655973434,2016_Aug_16_1429,
5.0,Orange,110,0,113,113,113,m,0.238440036774,2016_Aug_16_1429,
7.0,DarkGray,110,0,114,114,114,m,0.222700834274,2016_Aug_16_1429,
3.0,Yellow,110,0,115,115,115,m,0.25461602211,2016_Aug_16_1429,
9.0,LightPink,110,0,116,116,116,m,0.262433052063,2016_Aug_16_1429,
2.0,Brown,110,0,117,117,117,m,0.126616954803,2016_Aug_16_1429,
4.0,Purple,110,0,118,118,118,m,0.0783259868622,2016_Aug_16_1429,
1.0,Orange,110,0,119,119,119,,,2016_Aug_16_1429,
8.0,DarkGray,110,0,120,120,120,,,2016_Aug_16_1429,
6.0,Yellow,110,0,121,121,121,,,2016_Aug_16_1429,
5.0,LightPink,110,0,122,122,122,,,2016_Aug_16_1429,
7.0,Brown,110,0,123,123,123,,,2016_Aug_16_1429,
3.0,Blue,110,0,124,124,124,,,2016_Aug_16_1429,
9.0,Red,110,0,125,125,125,,,2016_Aug_16_1429,
nan,nan,110,0,126,126,126,z,0.51832485199,2016_Aug_16_1429,
2.0,Green,110,0,127,127,127,m,0.254533052444,2016_Aug_16_1429,
4.0,Yellow,110,0,128,128,128,m,0.126175165176,2016_Aug_16_1429,
5.0,LightPink,110,0,129,129,129,m,0.406172990799,2016_Aug_16_1429,
7.0,Brown,110,0,130,130,130,m,0.118205070496,2016_Aug_16_1429,
3.0,Purple,110,0,131,131,131,m,0.246395111084,2016_Aug_16_1429,
1.0,Orange,110,0,132,132,132,m,0.326131820679,2016_Aug_16_1429,
8.0,DarkGray,110,0,133,133,133,m,0.118102073669,2016_Aug_16_1429,
6.0,Blue,110,0,134,134,134,m,0.278037071228,2016_Aug_16_1429,
9.0,Red,110,0,135,135,135,m,0.526031970978,2016_Aug_16_1429,
2.0,Green,110,0,136,136,136,m,0.294116973877,2016_Aug_16_1429,
4.0,Yellow,110,0,137,137,137,m,0.55810213089,2016_Aug_16_1429,
5.0,LightPink,110,0,138,138,138,m,0.302406072617,2016_Aug_16_1429,
7.0,Brown,110,0,139,139,139,m,0.102272033691,2016_Aug_16_1429,
3.0,Purple,110,0,140,140,140,m,0.358155965805,2016_Aug_16_1429,
1.0,Orange,110,0,141,141,141,m,0.182293176651,2016_Aug_16_1429,
8.0,DarkGray,110,0,142,142,142,,,2016_Aug_16_1429,
6.0,Yellow,110,0,143,143,143,m,0.35023021698,2016_Aug_16_1429,
nan,nan,110,0,144,144,144,m,0.0859611034393,2016_Aug_16_1429,
9.0,LightPink,110,0,145,145,145,m,0.19797205925,2016_Aug_16_1429,
2.0,Brown,110,0,146,146,146,m,0.134194850922,2016_Aug_16_1429,
4.0,Blue,110,0,147,147,147,m,0.358064174652,2016_Aug_16_1429,
5.0,Red,110,0,148,148,148,m,0.446228027344,2016_Aug_16_1429,
7.0,Green,110,0,149,149,149,m,0.206061840057,2016_Aug_16_1429,
3.0,Yellow,110,0,150,150,150,m,0.582087993622,2016_Aug_16_1429,
1.0,LightPink,110,0,151,151,151,m,0.285887956619,2016_Aug_16_1429,
8.0,Brown,110,0,152,152,152,m,0.0220990180969,2016_Aug_16_1429,
6.0,Blue,110,0,153,153,153,m,0.190064191818,2016_Aug_16_1429,
5.0,Red,110,0,154,154,154,m,0.422180175781,2016_Aug_16_1429,
7.0,Green,110,0,155,155,155,m,0.133809089661,2016_Aug_16_1429,
3.0,Yellow,110,0,156,156,156,,,2016_Aug_16_1429,
9.0,LightPink,110,0,157,157,157,m,0.582105875015,2016_Aug_16_1429,
2.0,Brown,110,0,158,158,158,m,0.278105020523,2016_Aug_16_1429,
4.0,Purple,110,0,159,159,159,m,0.0459799766541,2016_Aug_16_1429,
5.0,Orange,110,0,160,160,160,m,0.477785110474,2016_Aug_16_1429,
7.0,DarkGray,110,0,161,161,161,m,0.245855808258,2016_Aug_16_1429,
3.0,Yellow,110,0,162,162,162,m,0.278003931046,2016_Aug_16_1429,
1.0,LightPink,110,0,163,163,163,m,0.277833938599,2016_Aug_16_1429,
8.0,Brown,110,0,164,164,164,m,0.24606013298,2016_Aug_16_1429,
6.0,Blue,110,0,165,165,165,m,0.0458660125732,2016_Aug_16_1429,
nan,nan,110,0,166,166,166,z,0.510031938553,2016_Aug_16_1429,
5.0,Red,110,0,167,167,167,m,0.197797060013,2016_Aug_16_1429,
7.0,Green,110,0,168,168,168,m,0.27781701088,2016_Aug_16_1429,
3.0,Purple,110,0,169,169,169,m,0.301947116852,2016_Aug_16_1429,
9.0,Orange,110,0,170,170,170,m,0.341809034348,2016_Aug_16_1429,
2.0,DarkGray,110,0,171,171,171,m,0.421811819077,2016_Aug_16_1429,
4.0,Blue,110,0,172,172,172,m,0.173990011215,2016_Aug_16_1429,
5.0,Red,110,0,173,173,173,m,0.317786931992,2016_Aug_16_1429,
7.0,Green,110,0,174,174,174,m,0.0455958843231,2016_Aug_16_1429,
3.0,Yellow,110,0,175,175,175,m,0.301512002945,2016_Aug_16_1429,
9.0,LightPink,110,0,176,176,176,m,0.0379660129547,2016_Aug_16_1429,
2.0,Brown,110,0,177,177,177,m,0.0458199977875,2016_Aug_16_1429,
4.0,Purple,110,0,178,178,178,m,0.0619220733643,2016_Aug_16_1429,
nan,nan,110,0,179,179,179,m,0.0775971412659,2016_Aug_16_1429,
5.0,Orange,110,0,180,180,180,m,0.141474962234,2016_Aug_16_1429,
7.0,DarkGray,110,0,181,181,181,m,0.149682044983,2016_Aug_16_1429,
3.0,Blue,110,0,182,182,182,m,0.165874004364,2016_Aug_16_1429,
9.0,Red,110,0,183,183,183,m,0.141551017761,2016_Aug_16_1429,
2.0,Green,110,0,184,184,184,m,0.237687110901,2016_Aug_16_1429,
4.0,Yellow,110,0,185,185,185,m,0.285606145859,2016_Aug_16_1429,
5.0,LightPink,110,0,186,186,186,m,0.309545993805,2016_Aug_16_1429,
7.0,Brown,110,0,187,187,187,m,0.301572084427,2016_Aug_16_1429,
3.0,Purple,110,0,188,188,188,,,2016_Aug_16_1429,
9.0,Orange,110,0,189,189,189,m,0.3335750103,2016_Aug_16_1429,
2.0,DarkGray,110,0,190,190,190,,,2016_Aug_16_1429,
4.0,Yellow,110,0,191,191,191,m,0.445308208466,2016_Aug_16_1429,
5.0,LightPink,110,0,192,192,192,m,0.109709024429,2016_Aug_16_1429,
7.0,Brown,110,0,193,193,193,m,0.285731077194,2016_Aug_16_1429,
3.0,Purple,110,0,194,194,194,m,0.125336885452,2016_Aug_16_1429,
9.0,Orange,110,0,195,195,195,m,0.549446821213,2016_Aug_16_1429,
2.0,DarkGray,110,0,196,196,196,m,0.293706893921,2016_Aug_16_1429,
4.0,Blue,110,0,197,197,197,m,0.109596967697,2016_Aug_16_1429,
1.0,Red,110,0,198,198,198,m,0.357357025146,2016_Aug_16_1429,
nan,nan,110,0,199,199,199,z,0.397427082062,2016_Aug_16_1429,
8.0,Green,110,0,200,200,200,m,0.0934879779816,2016_Aug_16_1429,
6.0,Yellow,110,0,201,201,201,m,0.277422904968,2016_Aug_16_1429,
9.0,LightPink,110,0,202,202,202,m,0.293312072754,2016_Aug_16_1429,
nan,nan,110,0,203,203,203,m,0.173398971558,2016_Aug_16_1429,
2.0,Brown,110,0,204,204,204,m,0.237318992615,2016_Aug_16_1429,
4.0,Purple,110,0,205,205,205,m,0.341226816177,2016_Aug_16_1429,
1.0,Orange,110,0,206,206,206,m,0.285208940506,2016_Aug_16_1429,
8.0,DarkGray,110,0,207,207,207,m,0.0214729309082,2016_Aug_16_1429,
6.0,Blue,110,0,208,208,208,m,0.269356012344,2016_Aug_16_1429,
5.0,Red,110,0,209,209,209,m,0.421272039413,2016_Aug_16_1429,
7.0,Green,110,0,210,210,210,m,0.165479898453,2016_Aug_16_1429,
3.0,Purple,110,0,211,211,211,m,0.301255941391,2016_Aug_16_1429,
9.0,Orange,110,0,212,212,212,,,2016_Aug_16_1429,
2.0,DarkGray,110,0,213,213,213,m,0.38138794899,2016_Aug_16_1429,
4.0,Yellow,110,0,214,214,214,m,0.229484081268,2016_Aug_16_1429,
1.0,LightPink,110,0,215,215,215,m,0.0611009597778,2016_Aug_16_1429,
8.0,Brown,110,0,216,216,216,,,2016_Aug_16_1429,
6.0,Blue,110,0,217,217,217,m,0.0770728588104,2016_Aug_16_1429,
9.0,Red,110,0,218,218,218,m,0.0692090988159,2016_Aug_16_1429,
2.0,Green,110,0,219,219,219,m,0.141067028046,2016_Aug_16_1429,
4.0,Purple,110,0,220,220,220,m,0.269321918488,2016_Aug_16_1429,
5.0,Orange,110,0,221,221,221,m,0.27702999115,2016_Aug_16_1429,
7.0,DarkGray,110,0,222,222,222,m,0.301394939423,2016_Aug_16_1429,
3.0,Yellow,110,0,223,223,223,m,0.237076997757,2016_Aug_16_1429,
1.0,LightPink,110,0,224,224,224,m,0.213155984879,2016_Aug_16_1429,
nan,nan,110,0,225,225,225,m,0.204946041107,2016_Aug_16_1429,
8.0,Brown,110,0,226,226,226,m,0.293172836304,2016_Aug_16_1429,
6.0,Blue,110,0,227,227,227,m,0.0931129455566,2016_Aug_16_1429,
9.0,Red,110,0,228,228,228,m,0.293143987656,2016_Aug_16_1429,
2.0,Green,110,0,229,229,229,m,0.244879961014,2016_Aug_16_1429,
4.0,Yellow,110,0,230,230,230,m,0.269098997116,2016_Aug_16_1429,
5.0,LightPink,110,0,231,231,231,m,0.0612759590149,2016_Aug_16_1429,
7.0,Brown,110,0,232,232,232,m,0.0773148536682,2016_Aug_16_1429,
3.0,Purple,110,0,233,233,233,,,2016_Aug_16_1429,
9.0,Orange,110,0,234,234,234,m,0.132975101471,2016_Aug_16_1429,
2.0,DarkGray,110,0,235,235,235,m,0.108994007111,2016_Aug_16_1429,
4.0,Blue,110,0,236,236,236,,,2016_Aug_16_1429,
1.0,Red,110,0,237,237,237,m,0.0687909126282,2016_Aug_16_1429,
8.0,Green,110,0,238,238,238,m,0.0529401302338,2016_Aug_16_1429,
6.0,Yellow,110,0,239,239,239,m,0.124927997589,2016_Aug_16_1429,
9.0,LightPink,110,0,240,240,240,m,0.0850470066071,2016_Aug_16_1429,
2.0,Brown,110,0,241,241,241,m,0.149158000946,2016_Aug_16_1429,
nan,nan,110,0,242,242,242,m,0.16504907608,2016_Aug_16_1429,
4.0,Blue,110,0,243,243,243,m,0.213192939758,2016_Aug_16_1429,
5.0,Red,110,0,244,244,244,m,0.284939050674,2016_Aug_16_1429,
7.0,Green,110,0,245,245,245,m,0.341041088104,2016_Aug_16_1429,
3.0,Yellow,110,0,246,246,246,m,0.0213189125061,2016_Aug_16_1429,
9.0,LightPink,110,0,247,247,247,,,2016_Aug_16_1429,
2.0,Brown,110,0,248,248,248,m,0.348794937134,2016_Aug_16_1429,
4.0,Blue,110,0,249,249,249,m,0.0690200328827,2016_Aug_16_1429,
1.0,Red,110,0,250,250,250,,,2016_Aug_16_1429,
8.0,Green,110,0,251,251,251,,,2016_Aug_16_1429,
6.0,Purple,110,0,252,252,252,,,2016_Aug_16_1429,
9.0,Orange,110,0,253,253,253,,,2016_Aug_16_1429,
2.0,DarkGray,110,0,254,254,254,m,0.372633934021,2016_Aug_16_1429,
4.0,Yellow,110,0,255,255,255,m,0.132898807526,2016_Aug_16_1429,
1.0,LightPink,110,0,256,256,256,m,0.0607960224152,2016_Aug_16_1429,
8.0,Brown,110,0,257,257,257,m,0.140810012817,2016_Aug_16_1429,
6.0,Purple,110,0,258,258,258,m,0.0685880184174,2016_Aug_16_1429,
9.0,Orange,110,0,259,259,259,m,0.0764520168304,2016_Aug_16_1429,
2.0,DarkGray,110,0,260,260,260,m,0.0848350524902,2016_Aug_16_1429,
4.0,Yellow,110,0,261,261,261,m,0.10081410408,2016_Aug_16_1429,
5.0,LightPink,110,0,262,262,262,m,0.26056098938,2016_Aug_16_1429,
7.0,Brown,110,0,263,263,263,m,0.252845048904,2016_Aug_16_1429,
3.0,Blue,110,0,264,264,264,m,0.26885008812,2016_Aug_16_1429,
1.0,Red,110,0,265,265,265,m,0.236865997314,2016_Aug_16_1429,
8.0,Green,110,0,266,266,266,m,0.188652992249,2016_Aug_16_1429,
6.0,Yellow,110,0,267,267,267,m,0.0768461227417,2016_Aug_16_1429,
9.0,LightPink,110,0,268,268,268,m,0.0606198310852,2016_Aug_16_1429,
2.0,Brown,110,0,269,269,269,m,0.116574048996,2016_Aug_16_1429,
4.0,Blue,110,0,270,270,270,m,0.100818872452,2016_Aug_16_1429,
5.0,Red,110,0,271,271,271,m,0.028746843338,2016_Aug_16_1429,
7.0,Green,110,0,272,272,272,m,0.0446200370789,2016_Aug_16_1429,
3.0,Yellow,110,0,273,273,273,m,0.0764689445496,2016_Aug_16_1429,
1.0,LightPink,110,0,274,274,274,,,2016_Aug_16_1429,
nan,nan,110,0,275,275,275,z,0.564464092255,2016_Aug_16_1429,
8.0,Brown,110,0,276,276,276,m,0.220544099808,2016_Aug_16_1429,
6.0,Purple,110,0,277,277,277,m,0.132750988007,2016_Aug_16_1429,
5.0,Orange,110,0,278,278,278,m,0.404615879059,2016_Aug_16_1429,
7.0,DarkGray,110,0,279,279,279,m,0.180483102798,2016_Aug_16_1429,
3.0,Yellow,110,0,280,280,280,m,0.356688976288,2016_Aug_16_1429,
1.0,LightPink,110,0,281,281,281,m,0.0287828445435,2016_Aug_16_1429,
8.0,Brown,110,0,282,282,282,m,0.324303865433,2016_Aug_16_1429,
6.0,Blue,110,0,283,283,283,,,2016_Aug_16_1429,
9.0,Red,110,0,284,284,284,,,2016_Aug_16_1429,
2.0,Green,110,0,285,285,285,m,0.404152870178,2016_Aug_16_1429,
4.0,Purple,110,0,286,286,286,m,0.24446606636,2016_Aug_16_1429,
5.0,Orange,110,0,287,287,287,m,0.164568901062,2016_Aug_16_1429,
nan,nan,110,0,288,288,288,m,0.132475137711,2016_Aug_16_1429,
7.0,DarkGray,110,0,289,289,289,m,0.388151884079,2016_Aug_16_1429,
3.0,Yellow,110,0,290,290,290,m,0.292249917984,2016_Aug_16_1429,
1.0,LightPink,110,0,291,291,291,m,0.284225940704,2016_Aug_16_1429,
8.0,Brown,110,0,292,292,292,m,0.220144033432,2016_Aug_16_1429,
6.0,Blue,110,0,293,293,293,m,0.0922758579254,2016_Aug_16_1429,
5.0,Red,110,0,294,294,294,m,0.0604908466339,2016_Aug_16_1429,
7.0,Green,110,0,295,295,295,m,0.0764691829681,2016_Aug_16_1429,
3.0,Purple,110,0,296,296,296,m,0.108222961426,2016_Aug_16_1429,
1.0,Orange,110,0,297,297,297,m,0.260484933853,2016_Aug_16_1429,
8.0,DarkGray,110,0,298,298,298,m,0.244225025177,2016_Aug_16_1429,
6.0,Yellow,110,0,299,299,299,m,0.284169197083,2016_Aug_16_1429,
5.0,LightPink,110,0,300,300,300,m,0.16438293457,2016_Aug_16_1429,
nan,nan,110,0,301,301,301,m,0.10812997818,2016_Aug_16_1429,
7.0,Brown,110,0,302,302,302,m,0.307961940765,2016_Aug_16_1429,
3.0,Blue,110,0,303,303,303,m,0.308123826981,2016_Aug_16_1429,
1.0,Red,110,0,304,304,304,m,0.308019161224,2016_Aug_16_1429,
8.0,Green,110,0,305,305,305,m,0.140092849731,2016_Aug_16_1429,
6.0,Purple,110,0,306,306,306,m,0.0602750778198,2016_Aug_16_1429,
9.0,Orange,110,0,307,307,307,m,0.564080953598,2016_Aug_16_1429,
2.0,DarkGray,110,0,308,308,308,m,0.468223810196,2016_Aug_16_1429,
4.0,Blue,110,0,309,309,309,m,0.332029104233,2016_Aug_16_1429,
1.0,Red,110,0,310,310,310,m,0.29988694191,2016_Aug_16_1429,
8.0,Green,110,0,311,311,311,m,0.219949960709,2016_Aug_16_1429,
6.0,Purple,110,0,312,312,312,m,0.212153911591,2016_Aug_16_1429,
5.0,Orange,110,0,313,313,313,m,0.179895162582,2016_Aug_16_1429,
7.0,DarkGray,110,0,314,314,314,m,0.172077178955,2016_Aug_16_1429,
nan,nan,110,0,315,315,315,z,0.420207023621,2016_Aug_16_1429,
3.0,Blue,110,0,316,316,316,m,0.11604309082,2016_Aug_16_1429,
1.0,Red,110,0,317,317,317,m,0.0601148605347,2016_Aug_16_1429,
8.0,Green,110,0,318,318,318,m,0.388039112091,2016_Aug_16_1429,
6.0,Yellow,110,0,319,319,319,m,0.188005924225,2016_Aug_16_1429,
nan,nan,110,0,320,320,320,m,0.180110931396,2016_Aug_16_1429,
9.0,LightPink,110,0,321,321,321,m,0.283978939056,2016_Aug_16_1429,
2.0,Brown,110,0,322,322,322,m,0.148024082184,2016_Aug_16_1429,
4.0,Purple,110,0,323,323,323,m,0.0356879234314,2016_Aug_16_1429,
5.0,Orange,110,0,324,324,324,m,0.0917930603027,2016_Aug_16_1429,
7.0,DarkGray,110,0,325,325,325,m,0.292057991028,2016_Aug_16_1429,
3.0,Blue,110,0,326,326,326,m,0.29204916954,2016_Aug_16_1429,
1.0,Red,110,0,327,327,327,m,0.275839090347,2016_Aug_16_1429,
8.0,Green,110,0,328,328,328,m,0.211850881577,2016_Aug_16_1429,
nan,nan,110,0,329,329,329,m,0.195770978928,2016_Aug_16_1429,
6.0,Purple,110,0,330,330,330,m,0.331945180893,2016_Aug_16_1429,
5.0,Orange,110,0,331,331,331,m,0.147660970688,2016_Aug_16_1429,
7.0,DarkGray,110,0,332,332,332,m,0.299612998962,2016_Aug_16_1429,
3.0,Blue,110,0,333,333,333,m,0.291907072067,2016_Aug_16_1429,
1.0,Red,110,0,334,334,334,m,0.299806833267,2016_Aug_16_1429,
8.0,Green,110,0,335,335,335,m,0.291844129562,2016_Aug_16_1429,
6.0,Yellow,110,0,336,336,336,m,0.299518108368,2016_Aug_16_1429,
nan,nan,110,0,337,337,337,z,0.363953113556,2016_Aug_16_1429,
9.0,LightPink,110,0,338,338,338,m,0.155924081802,2016_Aug_16_1429,
nan,nan,110,0,339,339,339,z,0.555835962296,2016_Aug_16_1429,
2.0,Brown,110,0,340,340,340,m,0.307879924774,2016_Aug_16_1429,
4.0,Blue,110,0,341,341,341,m,0.3077480793,2016_Aug_16_1429,
5.0,Red,110,0,342,342,342,m,0.259500026703,2016_Aug_16_1429,
7.0,Green,110,0,343,343,343,m,0.267771959305,2016_Aug_16_1429,
nan,nan,110,0,344,344,344,m,0.16396021843,2016_Aug_16_1429,
3.0,Yellow,110,0,345,345,345,m,0.139708042145,2016_Aug_16_1429,
1.0,LightPink,110,0,346,346,346,,,2016_Aug_16_1429,
8.0,Brown,110,0,347,347,347,m,0.267501115799,2016_Aug_16_1429,
6.0,Blue,110,0,348,348,348,m,0.259485006332,2016_Aug_16_1429,
5.0,Red,110,0,349,349,349,m,0.243429899216,2016_Aug_16_1429,
7.0,Green,110,0,350,350,350,m,0.267420053482,2016_Aug_16_1429,
nan,nan,110,0,351,351,351,z,0.267664194107,2016_Aug_16_1429,
3.0,Yellow,110,0,352,352,352,m,0.483281850815,2016_Aug_16_1429,
1.0,LightPink,110,0,353,353,353,m,0.24355006218,2016_Aug_16_1429,
8.0,Brown,110,0,354,354,354,m,0.451653003693,2016_Aug_16_1429,
6.0,Purple,110,0,355,355,355,m,0.259412765503,2016_Aug_16_1429,
9.0,Orange,110,0,356,356,356,m,0.267547130585,2016_Aug_16_1429,
2.0,DarkGray,110,0,357,357,357,m,0.299736022949,2016_Aug_16_1429,
4.0,Yellow,110,0,358,358,358,m,0.219357967377,2016_Aug_16_1429,
1.0,LightPink,110,0,359,359,359,m,0.219449996948,2016_Aug_16_1429,
8.0,Brown,110,0,360,360,360,m,0.123320817947,2016_Aug_16_1429,
6.0,Blue,110,0,361,361,361,m,0.251430988312,2016_Aug_16_1429,
5.0,Red,110,0,362,362,362,m,0.235394954681,2016_Aug_16_1429,
7.0,Green,110,0,363,363,363,m,0.283191919327,2016_Aug_16_1429,
3.0,Yellow,110,0,364,364,364,m,0.251523017883,2016_Aug_16_1429,
1.0,LightPink,110,0,365,365,365,m,0.211525917053,2016_Aug_16_1429,
8.0,Brown,110,0,366,366,366,m,0.291162014008,2016_Aug_16_1429,
nan,nan,110,0,367,367,367,z,0.395169973373,2016_Aug_16_1429,
6.0,Purple,110,0,368,368,368,m,0.219513893127,2016_Aug_16_1429,
5.0,Orange,110,0,369,369,369,m,0.0914621353149,2016_Aug_16_1429,
7.0,DarkGray,110,0,370,370,370,m,0.0431299209595,2016_Aug_16_1429,
3.0,Yellow,110,0,371,371,371,,,2016_Aug_16_1429,
1.0,LightPink,110,0,372,372,372,,,2016_Aug_16_1429,
8.0,Brown,110,0,373,373,373,,,2016_Aug_16_1429,
6.0,Purple,110,0,374,374,374,,,2016_Aug_16_1429,
5.0,Orange,110,0,375,375,375,,,2016_Aug_16_1429,
7.0,DarkGray,110,0,376,376,376,,,2016_Aug_16_1429,
3.0,Blue,110,0,377,377,377,m,0.0910270214081,2016_Aug_16_1429,
1.0,Red,110,0,378,378,378,m,0.0830709934235,2016_Aug_16_1429,
8.0,Green,110,0,379,379,379,m,0.12332701683,2016_Aug_16_1429,
6.0,Purple,110,0,380,380,380,m,0.194977045059,2016_Aug_16_1429,
9.0,Orange,110,0,381,381,381,m,0.179343938828,2016_Aug_16_1429,
2.0,DarkGray,110,0,382,382,382,m,0.315300226212,2016_Aug_16_1429,
4.0,Blue,110,0,383,383,383,m,0.266994953156,2016_Aug_16_1429,
1.0,Red,110,0,384,384,384,m,0.274892091751,2016_Aug_16_1429,
8.0,Green,110,0,385,385,385,m,0.347208976746,2016_Aug_16_1429,
6.0,Purple,110,0,386,386,386,m,0.298897027969,2016_Aug_16_1429,
9.0,Orange,110,0,387,387,387,m,0.291157960892,2016_Aug_16_1429,
2.0,DarkGray,110,0,388,388,388,m,0.395166873932,2016_Aug_16_1429,
4.0,Yellow,110,0,389,389,389,m,0.25917506218,2016_Aug_16_1429,
1.0,LightPink,110,0,390,390,390,m,0.234958171844,2016_Aug_16_1429,
8.0,Brown,110,0,391,391,391,m,0.203041791916,2016_Aug_16_1429,
6.0,Blue,110,0,392,392,392,m,0.259108066559,2016_Aug_16_1429,
9.0,Red,110,0,393,393,393,m,0.291053056717,2016_Aug_16_1429,
2.0,Green,110,0,394,394,394,m,0.298873901367,2016_Aug_16_1429,
4.0,Purple,110,0,395,395,395,m,0.218918085098,2016_Aug_16_1429,
1.0,Orange,110,0,396,396,396,m,0.11497092247,2016_Aug_16_1429,
8.0,DarkGray,110,0,397,397,397,m,0.0990040302277,2016_Aug_16_1429,
6.0,Blue,110,0,398,398,398,m,0.23513007164,2016_Aug_16_1429,
5.0,Red,110,0,399,399,399,m,0.066880941391,2016_Aug_16_1429,
7.0,Green,110,0,400,400,400,m,0.0587642192841,2016_Aug_16_1429,
3.0,Yellow,110,0,401,401,401,m,0.0268340110779,2016_Aug_16_1429,
1.0,LightPink,110,0,402,402,402,m,0.0907559394836,2016_Aug_16_1429,
nan,nan,110,0,403,403,403,m,0.0747539997101,2016_Aug_16_1429,
8.0,Brown,110,0,404,404,404,m,0.27485203743,2016_Aug_16_1429,
6.0,Purple,110,0,405,405,405,m,0.0350329875946,2016_Aug_16_1429,
nan,nan,110,0,406,406,406,m,0.0588309764862,2016_Aug_16_1429,
9.0,Orange,110,0,407,407,407,m,0.30694103241,2016_Aug_16_1429,
2.0,DarkGray,110,0,408,408,408,m,0.458940982819,2016_Aug_16_1429,
4.0,Blue,110,0,409,409,409,m,0.266701936722,2016_Aug_16_1429,
1.0,Red,110,0,410,410,410,m,0.0989158153534,2016_Aug_16_1429,
8.0,Green,110,0,411,411,411,m,0.28255200386,2016_Aug_16_1429,
nan,nan,110,0,412,412,412,m,0.194897890091,2016_Aug_16_1429,
6.0,Purple,110,0,413,413,413,m,0.282912015915,2016_Aug_16_1429,
9.0,Orange,110,0,414,414,414,m,0.0825669765472,2016_Aug_16_1429,
nan,nan,110,0,415,415,415,z,0.426630020142,2016_Aug_16_1429,
2.0,DarkGray,110,0,416,416,416,m,0.250524044037,2016_Aug_16_1429,
4.0,Yellow,110,0,417,417,417,m,0.258653879166,2016_Aug_16_1429,
1.0,LightPink,110,0,418,418,418,m,0.258505105972,2016_Aug_16_1429,
8.0,Brown,110,0,419,419,419,m,0.306505918503,2016_Aug_16_1429,
6.0,Blue,110,0,420,420,420,m,0.258692979813,2016_Aug_16_1429,
5.0,Red,110,0,421,421,421,m,0.226860046387,2016_Aug_16_1429,
7.0,Green,110,0,422,422,422,m,0.210587024689,2016_Aug_16_1429,
3.0,Purple,110,0,423,423,423,m,0.0905511379242,2016_Aug_16_1429,
1.0,Orange,110,0,424,424,424,,,2016_Aug_16_1429,
8.0,DarkGray,110,0,425,425,425,m,0.410444021225,2016_Aug_16_1429,
6.0,Blue,110,0,426,426,426,m,0.338799953461,2016_Aug_16_1429,
5.0,Red,110,0,427,427,427,m,0.23481297493,2016_Aug_16_1429,
7.0,Green,110,0,428,428,428,m,0.106559038162,2016_Aug_16_1429,
3.0,Purple,110,0,429,429,429,m,0.0904719829559,2016_Aug_16_1429,
9.0,Orange,110,0,430,430,430,m,0.258551836014,2016_Aug_16_1429,
2.0,DarkGray,110,0,431,431,431,m,0.386529922485,2016_Aug_16_1429,
4.0,nan,110,0,432,432,432,m,0.354717969894,2016_Aug_16_1429,
