dot_values,colour_values,participant,.thisRepN,.thisTrialN,.thisN,.thisIndex,response,response_time,date,
nan,Blue,112,0,0,0,0,,,2016_Jul_15_1138,
1.0,Red,112,0,1,1,1,m,0.0358030796051,2016_Jul_15_1138,
8.0,Green,112,0,2,2,2,m,0.0521450042725,2016_Jul_15_1138,
6.0,Purple,112,0,3,3,3,m,0.556073188782,2016_Jul_15_1138,
9.0,Orange,112,0,4,4,4,m,0.372144937515,2016_Jul_15_1138,
nan,nan,112,0,5,5,5,z,0.540124177933,2016_Jul_15_1138,
2.0,DarkGray,112,0,6,6,6,m,0.427996873856,2016_Jul_15_1138,
4.0,Yellow,112,0,7,7,7,m,0.347975969315,2016_Jul_15_1138,
1.0,LightPink,112,0,8,8,8,m,0.35598897934,2016_Jul_15_1138,
8.0,Brown,112,0,9,9,9,m,0.323807001114,2016_Jul_15_1138,
6.0,Purple,112,0,10,10,10,m,0.299875020981,2016_Jul_15_1138,
9.0,Orange,112,0,11,11,11,m,0.283900976181,2016_Jul_15_1138,
2.0,DarkGray,112,0,12,12,12,m,0.364072084427,2016_Jul_15_1138,
4.0,Yellow,112,0,13,13,13,m,0.363768815994,2016_Jul_15_1138,
1.0,LightPink,112,0,14,14,14,m,0.299685001373,2016_Jul_15_1138,
8.0,Brown,112,0,15,15,15,m,0.259828090668,2016_Jul_15_1138,
6.0,Purple,112,0,16,16,16,m,0.292003154755,2016_Jul_15_1138,
9.0,Orange,112,0,17,17,17,m,0.284036159515,2016_Jul_15_1138,
2.0,DarkGray,112,0,18,18,18,m,0.459942817688,2016_Jul_15_1138,
4.0,Yellow,112,0,19,19,19,m,0.403608083725,2016_Jul_15_1138,
5.0,LightPink,112,0,20,20,20,m,0.307672977448,2016_Jul_15_1138,
7.0,Brown,112,0,21,21,21,m,0.275928020477,2016_Jul_15_1138,
3.0,Purple,112,0,22,22,22,m,0.275928974152,2016_Jul_15_1138,
9.0,Orange,112,0,23,23,23,m,0.283800125122,2016_Jul_15_1138,
2.0,DarkGray,112,0,24,24,24,m,0.411542892456,2016_Jul_15_1138,
4.0,Yellow,112,0,25,25,25,m,0.283879995346,2016_Jul_15_1138,
5.0,LightPink,112,0,26,26,26,m,0.371950149536,2016_Jul_15_1138,
7.0,Brown,112,0,27,27,27,m,0.363612174988,2016_Jul_15_1138,
3.0,Purple,112,0,28,28,28,m,0.25189781189,2016_Jul_15_1138,
1.0,Orange,112,0,29,29,29,m,0.259520053864,2016_Jul_15_1138,
8.0,DarkGray,112,0,30,30,30,m,0.227479934692,2016_Jul_15_1138,
6.0,Yellow,112,0,31,31,31,m,0.26739692688,2016_Jul_15_1138,
5.0,LightPink,112,0,32,32,32,m,0.235694885254,2016_Jul_15_1138,
7.0,Brown,112,0,33,33,33,m,0.235584020615,2016_Jul_15_1138,
3.0,Purple,112,0,34,34,34,m,0.267472028732,2016_Jul_15_1138,
1.0,Orange,112,0,35,35,35,m,0.323568105698,2016_Jul_15_1138,
8.0,DarkGray,112,0,36,36,36,m,0.459471940994,2016_Jul_15_1138,
nan,nan,112,0,37,37,37,z,0.499733924866,2016_Jul_15_1138,
6.0,Blue,112,0,38,38,38,,,2016_Jul_15_1138,
9.0,Red,112,0,39,39,39,m,0.0193450450897,2016_Jul_15_1138,
2.0,Green,112,0,40,40,40,m,0.323431968689,2016_Jul_15_1138,
4.0,Purple,112,0,41,41,41,m,0.291718006134,2016_Jul_15_1138,
nan,nan,112,0,42,42,42,m,0.115512132645,2016_Jul_15_1138,
5.0,Orange,112,0,43,43,43,m,0.443568944931,2016_Jul_15_1138,
7.0,DarkGray,112,0,44,44,44,m,0.371462106705,2016_Jul_15_1138,
nan,nan,112,0,45,45,45,z,0.443464040756,2016_Jul_15_1138,
3.0,Blue,112,0,46,46,46,m,0.42727804184,2016_Jul_15_1138,
1.0,Red,112,0,47,47,47,m,0.227358818054,2016_Jul_15_1138,
8.0,Green,112,0,48,48,48,m,0.283487081528,2016_Jul_15_1138,
6.0,Yellow,112,0,49,49,49,m,0.243607997894,2016_Jul_15_1138,
9.0,LightPink,112,0,50,50,50,m,0.227306842804,2016_Jul_15_1138,
2.0,Brown,112,0,51,51,51,m,0.275274991989,2016_Jul_15_1138,
4.0,Blue,112,0,52,52,52,m,0.0993680953979,2016_Jul_15_1138,
1.0,Red,112,0,53,53,53,m,0.235218048096,2016_Jul_15_1138,
8.0,Green,112,0,54,54,54,m,0.219176054001,2016_Jul_15_1138,
6.0,Purple,112,0,55,55,55,m,0.0831751823425,2016_Jul_15_1138,
nan,nan,112,0,56,56,56,z,0.451472043991,2016_Jul_15_1138,
5.0,Orange,112,0,57,57,57,m,0.371121883392,2016_Jul_15_1138,
7.0,DarkGray,112,0,58,58,58,m,0.595276832581,2016_Jul_15_1138,
3.0,Yellow,112,0,59,59,59,m,0.323464870453,2016_Jul_15_1138,
1.0,LightPink,112,0,60,60,60,m,0.299178123474,2016_Jul_15_1138,
8.0,Brown,112,0,61,61,61,m,0.243298053741,2016_Jul_15_1138,
6.0,Blue,112,0,62,62,62,,,2016_Jul_15_1138,
5.0,Red,112,0,63,63,63,m,0.283381938934,2016_Jul_15_1138,
7.0,Green,112,0,64,64,64,m,0.17141699791,2016_Jul_15_1138,
3.0,Yellow,112,0,65,65,65,m,0.427269935608,2016_Jul_15_1138,
1.0,LightPink,112,0,66,66,66,m,0.299263000488,2016_Jul_15_1138,
8.0,Brown,112,0,67,67,67,m,0.267056941986,2016_Jul_15_1138,
6.0,Blue,112,0,68,68,68,m,0.459028959274,2016_Jul_15_1138,
5.0,Red,112,0,69,69,69,m,0.307020902634,2016_Jul_15_1138,
7.0,Green,112,0,70,70,70,m,0.275087833405,2016_Jul_15_1138,
nan,nan,112,0,71,71,71,m,0.146937847137,2016_Jul_15_1138,
3.0,Purple,112,0,72,72,72,m,0.579223871231,2016_Jul_15_1138,
9.0,Orange,112,0,73,73,73,m,0.139121055603,2016_Jul_15_1138,
2.0,DarkGray,112,0,74,74,74,m,0.363126039505,2016_Jul_15_1138,
4.0,Yellow,112,0,75,75,75,m,0.242909908295,2016_Jul_15_1138,
5.0,LightPink,112,0,76,76,76,m,0.251235961914,2016_Jul_15_1138,
7.0,Brown,112,0,77,77,77,m,0.323011159897,2016_Jul_15_1138,
nan,nan,112,0,78,78,78,m,0.0987839698792,2016_Jul_15_1138,
3.0,Purple,112,0,79,79,79,m,0.458926916122,2016_Jul_15_1138,
9.0,Orange,112,0,80,80,80,m,0.147027015686,2016_Jul_15_1138,
2.0,DarkGray,112,0,81,81,81,m,0.0430960655212,2016_Jul_15_1138,
4.0,Yellow,112,0,82,82,82,m,0.290842056274,2016_Jul_15_1138,
5.0,LightPink,112,0,83,83,83,m,0.267050981522,2016_Jul_15_1138,
7.0,Brown,112,0,84,84,84,m,0.307013034821,2016_Jul_15_1138,
3.0,Blue,112,0,85,85,85,m,0.251111984253,2016_Jul_15_1138,
9.0,Red,112,0,86,86,86,m,0.258811950684,2016_Jul_15_1138,
2.0,Green,112,0,87,87,87,m,0.242672204971,2016_Jul_15_1138,
4.0,Purple,112,0,88,88,88,m,0.139145851135,2016_Jul_15_1138,
5.0,Orange,112,0,89,89,89,m,0.114694833755,2016_Jul_15_1138,
nan,nan,112,0,90,90,90,,,2016_Jul_15_1138,
7.0,DarkGray,112,0,91,91,91,m,0.56279706955,2016_Jul_15_1138,
3.0,Blue,112,0,92,92,92,m,0.146645069122,2016_Jul_15_1138,
1.0,Red,112,0,93,93,93,m,0.314788818359,2016_Jul_15_1138,
8.0,Green,112,0,94,94,94,m,0.0427911281586,2016_Jul_15_1138,
nan,nan,112,0,95,95,95,,,2016_Jul_15_1138,
6.0,Yellow,112,0,96,96,96,m,0.282822847366,2016_Jul_15_1138,
5.0,LightPink,112,0,97,97,97,,,2016_Jul_15_1138,
7.0,Brown,112,0,98,98,98,m,0.530602931976,2016_Jul_15_1138,
3.0,Purple,112,0,99,99,99,m,0.330863952637,2016_Jul_15_1138,
9.0,Orange,112,0,100,100,100,m,0.458649873734,2016_Jul_15_1138,
2.0,DarkGray,112,0,101,101,101,,,2016_Jul_15_1138,
4.0,Yellow,112,0,102,102,102,,,2016_Jul_15_1138,
1.0,LightPink,112,0,103,103,103,m,0.306562900543,2016_Jul_15_1138,
8.0,Brown,112,0,104,104,104,m,0.306740999222,2016_Jul_15_1138,
6.0,Blue,112,0,105,105,105,m,0.266694068909,2016_Jul_15_1138,
5.0,Red,112,0,106,106,106,m,0.234809875488,2016_Jul_15_1138,
7.0,Green,112,0,107,107,107,m,0.282370090485,2016_Jul_15_1138,
3.0,Purple,112,0,108,108,108,m,0.298743009567,2016_Jul_15_1138,
nan,nan,112,0,109,109,109,z,0.538546085358,2016_Jul_15_1138,
9.0,Orange,112,0,110,110,110,m,0.338775873184,2016_Jul_15_1138,
2.0,DarkGray,112,0,111,111,111,m,0.19446015358,2016_Jul_15_1138,
4.0,Blue,112,0,112,112,112,m,0.202414989471,2016_Jul_15_1138,
1.0,Red,112,0,113,113,113,m,0.27451300621,2016_Jul_15_1138,
8.0,Green,112,0,114,114,114,m,0.20271396637,2016_Jul_15_1138,
6.0,Purple,112,0,115,115,115,m,0.242597103119,2016_Jul_15_1138,
nan,nan,112,0,116,116,116,z,0.514420986176,2016_Jul_15_1138,
9.0,Orange,112,0,117,117,117,m,0.362290859222,2016_Jul_15_1138,
2.0,DarkGray,112,0,118,118,118,m,0.162405967712,2016_Jul_15_1138,
nan,nan,112,0,119,119,119,m,0.146644830704,2016_Jul_15_1138,
4.0,Blue,112,0,120,120,120,m,0.5302298069,2016_Jul_15_1138,
5.0,Red,112,0,121,121,121,m,0.266378164291,2016_Jul_15_1138,
7.0,Green,112,0,122,122,122,m,0.282492876053,2016_Jul_15_1138,
3.0,Yellow,112,0,123,123,123,m,0.23433303833,2016_Jul_15_1138,
9.0,LightPink,112,0,124,124,124,m,0.362519979477,2016_Jul_15_1138,
2.0,Brown,112,0,125,125,125,m,0.306201934814,2016_Jul_15_1138,
4.0,Purple,112,0,126,126,126,m,0.29817199707,2016_Jul_15_1138,
5.0,Orange,112,0,127,127,127,m,0.354300022125,2016_Jul_15_1138,
7.0,DarkGray,112,0,128,128,128,m,0.434278964996,2016_Jul_15_1138,
3.0,Yellow,112,0,129,129,129,m,0.338173151016,2016_Jul_15_1138,
9.0,LightPink,112,0,130,130,130,m,0.290521860123,2016_Jul_15_1138,
2.0,Brown,112,0,131,131,131,m,0.282337903976,2016_Jul_15_1138,
4.0,Purple,112,0,132,132,132,m,0.250407934189,2016_Jul_15_1138,
5.0,Orange,112,0,133,133,133,m,0.274086952209,2016_Jul_15_1138,
7.0,DarkGray,112,0,134,134,134,m,0.298261880875,2016_Jul_15_1138,
nan,nan,112,0,135,135,135,z,0.442097902298,2016_Jul_15_1138,
3.0,Blue,112,0,136,136,136,m,0.442365169525,2016_Jul_15_1138,
1.0,Red,112,0,137,137,137,m,0.178377866745,2016_Jul_15_1138,
8.0,Green,112,0,138,138,138,m,0.0661928653717,2016_Jul_15_1138,
6.0,Yellow,112,0,139,139,139,m,0.210129976273,2016_Jul_15_1138,
9.0,LightPink,112,0,140,140,140,m,0.170286893845,2016_Jul_15_1138,
nan,nan,112,0,141,141,141,m,0.162248134613,2016_Jul_15_1138,
2.0,Brown,112,0,142,142,142,m,0.322180986404,2016_Jul_15_1138,
4.0,Blue,112,0,143,143,143,m,0.0981018543243,2016_Jul_15_1138,
1.0,Red,112,0,144,144,144,,,2016_Jul_15_1138,
8.0,Green,112,0,145,145,145,m,0.00983190536499,2016_Jul_15_1138,
6.0,Purple,112,0,146,146,146,m,0.129885911942,2016_Jul_15_1138,
5.0,Orange,112,0,147,147,147,m,0.225829124451,2016_Jul_15_1138,
nan,nan,112,0,148,148,148,z,0.489941120148,2016_Jul_15_1138,
7.0,DarkGray,112,0,149,149,149,m,0.425679922104,2016_Jul_15_1138,
3.0,Blue,112,0,150,150,150,m,0.226111888885,2016_Jul_15_1138,
nan,nan,112,0,151,151,151,m,0.0580880641937,2016_Jul_15_1138,
9.0,Red,112,0,152,152,152,m,0.441701889038,2016_Jul_15_1138,
nan,nan,112,0,153,153,153,m,0.20981502533,2016_Jul_15_1138,
2.0,Green,112,0,154,154,154,m,0.290066957474,2016_Jul_15_1138,
4.0,Yellow,112,0,155,155,155,m,0.313923120499,2016_Jul_15_1138,
5.0,LightPink,112,0,156,156,156,m,0.305912971497,2016_Jul_15_1138,
7.0,Brown,112,0,157,157,157,m,0.337929964066,2016_Jul_15_1138,
3.0,Purple,112,0,158,158,158,m,0.401980876923,2016_Jul_15_1138,
1.0,Orange,112,0,159,159,159,m,0.361710071564,2016_Jul_15_1138,
8.0,DarkGray,112,0,160,160,160,m,0.577633857727,2016_Jul_15_1138,
6.0,Blue,112,0,161,161,161,,,2016_Jul_15_1138,
5.0,Red,112,0,162,162,162,m,0.425626993179,2016_Jul_15_1138,
7.0,Green,112,0,163,163,163,m,0.401967048645,2016_Jul_15_1138,
3.0,Purple,112,0,164,164,164,m,0.321974039078,2016_Jul_15_1138,
9.0,Orange,112,0,165,165,165,m,0.281980037689,2016_Jul_15_1138,
2.0,DarkGray,112,0,166,166,166,m,0.377532958984,2016_Jul_15_1138,
4.0,Yellow,112,0,167,167,167,m,0.305603981018,2016_Jul_15_1138,
1.0,LightPink,112,0,168,168,168,m,0.305603027344,2016_Jul_15_1138,
8.0,Brown,112,0,169,169,169,m,0.27383518219,2016_Jul_15_1138,
6.0,Blue,112,0,170,170,170,m,0.289459943771,2016_Jul_15_1138,
5.0,Red,112,0,171,171,171,m,0.321720123291,2016_Jul_15_1138,
7.0,Green,112,0,172,172,172,m,0.2895860672,2016_Jul_15_1138,
3.0,Yellow,112,0,173,173,173,m,0.249423980713,2016_Jul_15_1138,
9.0,LightPink,112,0,174,174,174,m,0.329480886459,2016_Jul_15_1138,
2.0,Brown,112,0,175,175,175,m,0.32951593399,2016_Jul_15_1138,
4.0,Purple,112,0,176,176,176,m,0.265857934952,2016_Jul_15_1138,
5.0,Orange,112,0,177,177,177,m,0.32136297226,2016_Jul_15_1138,
7.0,DarkGray,112,0,178,178,178,m,0.48948097229,2016_Jul_15_1138,
3.0,Yellow,112,0,179,179,179,m,0.393754005432,2016_Jul_15_1138,
1.0,LightPink,112,0,180,180,180,m,0.353642940521,2016_Jul_15_1138,
8.0,Brown,112,0,181,181,181,m,0.337630987167,2016_Jul_15_1138,
6.0,Purple,112,0,182,182,182,m,0.36142206192,2016_Jul_15_1138,
9.0,Orange,112,0,183,183,183,m,0.409455060959,2016_Jul_15_1138,
nan,nan,112,0,184,184,184,z,0.457679033279,2016_Jul_15_1138,
2.0,DarkGray,112,0,185,185,185,m,0.46538901329,2016_Jul_15_1138,
nan,nan,112,0,186,186,186,z,0.51328086853,2016_Jul_15_1138,
4.0,Yellow,112,0,187,187,187,m,0.37761592865,2016_Jul_15_1138,
1.0,LightPink,112,0,188,188,188,m,0.321387052536,2016_Jul_15_1138,
8.0,Brown,112,0,189,189,189,m,0.225612878799,2016_Jul_15_1138,
6.0,Blue,112,0,190,190,190,m,0.233345031738,2016_Jul_15_1138,
5.0,Red,112,0,191,191,191,m,0.297331094742,2016_Jul_15_1138,
7.0,Green,112,0,192,192,192,m,0.273527860641,2016_Jul_15_1138,
3.0,Purple,112,0,193,193,193,m,0.321360826492,2016_Jul_15_1138,
1.0,Orange,112,0,194,194,194,m,0.361084938049,2016_Jul_15_1138,
8.0,DarkGray,112,0,195,195,195,m,0.409481048584,2016_Jul_15_1138,
6.0,Blue,112,0,196,196,196,m,0.425252914429,2016_Jul_15_1138,
5.0,Red,112,0,197,197,197,m,0.489103078842,2016_Jul_15_1138,
7.0,Green,112,0,198,198,198,m,0.433336019516,2016_Jul_15_1138,
nan,nan,112,0,199,199,199,z,0.489180088043,2016_Jul_15_1138,
3.0,Purple,112,0,200,200,200,m,0.369319915771,2016_Jul_15_1138,
9.0,Orange,112,0,201,201,201,m,0.265232086182,2016_Jul_15_1138,
2.0,DarkGray,112,0,202,202,202,m,0.201309919357,2016_Jul_15_1138,
4.0,Blue,112,0,203,203,203,m,0.30510020256,2016_Jul_15_1138,
5.0,Red,112,0,204,204,204,m,0.321187019348,2016_Jul_15_1138,
7.0,Green,112,0,205,205,205,m,0.265283823013,2016_Jul_15_1138,
3.0,Yellow,112,0,206,206,206,m,0.289130926132,2016_Jul_15_1138,
1.0,LightPink,112,0,207,207,207,m,0.297240972519,2016_Jul_15_1138,
8.0,Brown,112,0,208,208,208,m,0.353145837784,2016_Jul_15_1138,
6.0,Purple,112,0,209,209,209,m,0.329158782959,2016_Jul_15_1138,
9.0,Orange,112,0,210,210,210,m,0.41712808609,2016_Jul_15_1138,
2.0,DarkGray,112,0,211,211,211,m,0.481153964996,2016_Jul_15_1138,
4.0,Blue,112,0,212,212,212,m,0.488971948624,2016_Jul_15_1138,
1.0,Red,112,0,213,213,213,m,0.537108898163,2016_Jul_15_1138,
8.0,Green,112,0,214,214,214,m,0.529273986816,2016_Jul_15_1138,
nan,nan,112,0,215,215,215,z,0.528934955597,2016_Jul_15_1138,
6.0,Yellow,112,0,216,216,216,m,0.481318950653,2016_Jul_15_1138,
9.0,LightPink,112,0,217,217,217,m,0.312787055969,2016_Jul_15_1138,
2.0,Brown,112,0,218,218,218,m,0.320964097977,2016_Jul_15_1138,
4.0,Blue,112,0,219,219,219,m,0.224814891815,2016_Jul_15_1138,
5.0,Red,112,0,220,220,220,m,0.249132871628,2016_Jul_15_1138,
7.0,Green,112,0,221,221,221,m,0.257071018219,2016_Jul_15_1138,
nan,nan,112,0,222,222,222,z,0.48876786232,2016_Jul_15_1138,
3.0,Yellow,112,0,223,223,223,m,0.416992902756,2016_Jul_15_1138,
9.0,LightPink,112,0,224,224,224,m,0.289109945297,2016_Jul_15_1138,
2.0,Brown,112,0,225,225,225,m,0.328700065613,2016_Jul_15_1138,
4.0,Purple,112,0,226,226,226,m,0.344933986664,2016_Jul_15_1138,
1.0,Orange,112,0,227,227,227,m,0.328683137894,2016_Jul_15_1138,
8.0,DarkGray,112,0,228,228,228,m,0.48898601532,2016_Jul_15_1138,
6.0,Yellow,112,0,229,229,229,m,0.352861881256,2016_Jul_15_1138,
9.0,LightPink,112,0,230,230,230,m,0.360687971115,2016_Jul_15_1138,
2.0,Brown,112,0,231,231,231,m,0.392706155777,2016_Jul_15_1138,
4.0,Blue,112,0,232,232,232,m,0.472718000412,2016_Jul_15_1138,
5.0,Red,112,0,233,233,233,m,0.480897903442,2016_Jul_15_1138,
7.0,Green,112,0,234,234,234,m,0.512904882431,2016_Jul_15_1138,
3.0,Yellow,112,0,235,235,235,m,0.528798818588,2016_Jul_15_1138,
1.0,LightPink,112,0,236,236,236,m,0.504882097244,2016_Jul_15_1138,
8.0,Brown,112,0,237,237,237,m,0.504799127579,2016_Jul_15_1138,
6.0,Purple,112,0,238,238,238,m,0.456633806229,2016_Jul_15_1138,
5.0,Orange,112,0,239,239,239,,,2016_Jul_15_1138,
7.0,DarkGray,112,0,240,240,240,m,0.0646481513977,2016_Jul_15_1138,
3.0,Blue,112,0,241,241,241,,,2016_Jul_15_1138,
1.0,Red,112,0,242,242,242,m,0.600816965103,2016_Jul_15_1138,
nan,nan,112,0,243,243,243,z,0.512497901917,2016_Jul_15_1138,
8.0,Green,112,0,244,244,244,m,0.328783035278,2016_Jul_15_1138,
6.0,Yellow,112,0,245,245,245,m,0.104578971863,2016_Jul_15_1138,
9.0,LightPink,112,0,246,246,246,m,0.21676492691,2016_Jul_15_1138,
2.0,Brown,112,0,247,247,247,m,0.272395133972,2016_Jul_15_1138,
4.0,Blue,112,0,248,248,248,m,0.0886280536652,2016_Jul_15_1138,
5.0,Red,112,0,249,249,249,m,0.120773077011,2016_Jul_15_1138,
7.0,Green,112,0,250,250,250,m,0.0804588794708,2016_Jul_15_1138,
3.0,Yellow,112,0,251,251,251,m,0.128644943237,2016_Jul_15_1138,
9.0,LightPink,112,0,252,252,252,m,0.144451856613,2016_Jul_15_1138,
2.0,Brown,112,0,253,253,253,m,0.168684005737,2016_Jul_15_1138,
4.0,Purple,112,0,254,254,254,m,0.136391878128,2016_Jul_15_1138,
1.0,Orange,112,0,255,255,255,m,0.136718034744,2016_Jul_15_1138,
8.0,DarkGray,112,0,256,256,256,m,0.112550020218,2016_Jul_15_1138,
6.0,Yellow,112,0,257,257,257,m,0.312201976776,2016_Jul_15_1138,
9.0,LightPink,112,0,258,258,258,m,0.280483007431,2016_Jul_15_1138,
2.0,Brown,112,0,259,259,259,m,0.31222319603,2016_Jul_15_1138,
4.0,Blue,112,0,260,260,260,m,0.296270847321,2016_Jul_15_1138,
1.0,Red,112,0,261,261,261,m,0.296317100525,2016_Jul_15_1138,
8.0,Green,112,0,262,262,262,m,0.24832201004,2016_Jul_15_1138,
6.0,Yellow,112,0,263,263,263,m,0.184448003769,2016_Jul_15_1138,
9.0,LightPink,112,0,264,264,264,m,0.24019408226,2016_Jul_15_1138,
2.0,Brown,112,0,265,265,265,m,0.248198032379,2016_Jul_15_1138,
4.0,Purple,112,0,266,266,266,m,0.224157094955,2016_Jul_15_1138,
1.0,Orange,112,0,267,267,267,m,0.272428035736,2016_Jul_15_1138,
8.0,DarkGray,112,0,268,268,268,m,0.344303846359,2016_Jul_15_1138,
6.0,Yellow,112,0,269,269,269,m,0.304306983948,2016_Jul_15_1138,
5.0,LightPink,112,0,270,270,270,m,0.440222978592,2016_Jul_15_1138,
7.0,Brown,112,0,271,271,271,m,0.544137954712,2016_Jul_15_1138,
3.0,Blue,112,0,272,272,272,m,0.544115066528,2016_Jul_15_1138,
1.0,Red,112,0,273,273,273,m,0.544027090073,2016_Jul_15_1138,
8.0,Green,112,0,274,274,274,m,0.576145172119,2016_Jul_15_1138,
6.0,Yellow,112,0,275,275,275,,,2016_Jul_15_1138,
5.0,LightPink,112,0,276,276,276,,,2016_Jul_15_1138,
7.0,Brown,112,0,277,277,277,,,2016_Jul_15_1138,
3.0,Blue,112,0,278,278,278,m,0.560045957565,2016_Jul_15_1138,
9.0,Red,112,0,279,279,279,m,0.528168201447,2016_Jul_15_1138,
2.0,Green,112,0,280,280,280,m,0.496058940887,2016_Jul_15_1138,
4.0,Yellow,112,0,281,281,281,m,0.448309898376,2016_Jul_15_1138,
1.0,LightPink,112,0,282,282,282,m,0.431838989258,2016_Jul_15_1138,
8.0,Brown,112,0,283,283,283,m,0.447863101959,2016_Jul_15_1138,
6.0,Blue,112,0,284,284,284,m,0.400188207626,2016_Jul_15_1138,
5.0,Red,112,0,285,285,285,m,0.368052005768,2016_Jul_15_1138,
7.0,Green,112,0,286,286,286,m,0.375921964645,2016_Jul_15_1138,
3.0,Purple,112,0,287,287,287,m,0.312188148499,2016_Jul_15_1138,
nan,nan,112,0,288,288,288,z,0.448251008987,2016_Jul_15_1138,
9.0,Orange,112,0,289,289,289,m,0.327773809433,2016_Jul_15_1138,
2.0,DarkGray,112,0,290,290,290,m,0.295953989029,2016_Jul_15_1138,
nan,nan,112,0,291,291,291,z,0.584019899368,2016_Jul_15_1138,
4.0,Blue,112,0,292,292,292,m,0.376043081284,2016_Jul_15_1138,
1.0,Red,112,0,293,293,293,m,0.319753885269,2016_Jul_15_1138,
8.0,Green,112,0,294,294,294,m,0.319858074188,2016_Jul_15_1138,
6.0,Purple,112,0,295,295,295,m,0.287688970566,2016_Jul_15_1138,
5.0,Orange,112,0,296,296,296,m,0.295729875565,2016_Jul_15_1138,
7.0,DarkGray,112,0,297,297,297,m,0.359886169434,2016_Jul_15_1138,
nan,nan,112,0,298,298,298,z,0.47999215126,2016_Jul_15_1138,
3.0,Blue,112,0,299,299,299,m,0.4478931427,2016_Jul_15_1138,
1.0,Red,112,0,300,300,300,m,0.335558176041,2016_Jul_15_1138,
8.0,Green,112,0,301,301,301,m,0.303904056549,2016_Jul_15_1138,
6.0,Yellow,112,0,302,302,302,m,0.231935024261,2016_Jul_15_1138,
9.0,LightPink,112,0,303,303,303,m,0.343546867371,2016_Jul_15_1138,
2.0,Brown,112,0,304,304,304,m,0.319816112518,2016_Jul_15_1138,
4.0,Purple,112,0,305,305,305,m,0.295526027679,2016_Jul_15_1138,
1.0,Orange,112,0,306,306,306,m,0.319920063019,2016_Jul_15_1138,
8.0,DarkGray,112,0,307,307,307,m,0.423649072647,2016_Jul_15_1138,
nan,nan,112,0,308,308,308,z,0.439551830292,2016_Jul_15_1138,
6.0,Yellow,112,0,309,309,309,m,0.303484916687,2016_Jul_15_1138,
9.0,LightPink,112,0,310,310,310,m,0.239692926407,2016_Jul_15_1138,
2.0,Brown,112,0,311,311,311,m,0.279870986938,2016_Jul_15_1138,
4.0,Blue,112,0,312,312,312,m,0.287479877472,2016_Jul_15_1138,
nan,nan,112,0,313,313,313,z,0.487653017044,2016_Jul_15_1138,
5.0,Red,112,0,314,314,314,,,2016_Jul_15_1138,
7.0,Green,112,0,315,315,315,m,0.527542114258,2016_Jul_15_1138,
3.0,Purple,112,0,316,316,316,m,0.463639974594,2016_Jul_15_1138,
nan,nan,112,0,317,317,317,z,0.375569105148,2016_Jul_15_1138,
1.0,Orange,112,0,318,318,318,m,0.183704853058,2016_Jul_15_1138,
nan,nan,112,0,319,319,319,m,0.159534215927,2016_Jul_15_1138,
8.0,DarkGray,112,0,320,320,320,m,0.543637990952,2016_Jul_15_1138,
6.0,Yellow,112,0,321,321,321,m,0.599606990814,2016_Jul_15_1138,
9.0,LightPink,112,0,322,322,322,m,0.487437009811,2016_Jul_15_1138,
2.0,Brown,112,0,323,323,323,m,0.375446081161,2016_Jul_15_1138,
4.0,Purple,112,0,324,324,324,m,0.255594015121,2016_Jul_15_1138,
5.0,Orange,112,0,325,325,325,m,0.271231174469,2016_Jul_15_1138,
7.0,DarkGray,112,0,326,326,326,m,0.463581800461,2016_Jul_15_1138,
3.0,Yellow,112,0,327,327,327,m,0.559242010117,2016_Jul_15_1138,
1.0,LightPink,112,0,328,328,328,m,0.455471038818,2016_Jul_15_1138,
8.0,Brown,112,0,329,329,329,m,0.439357995987,2016_Jul_15_1138,
6.0,Blue,112,0,330,330,330,m,0.407540082932,2016_Jul_15_1138,
9.0,Red,112,0,331,331,331,m,0.439080953598,2016_Jul_15_1138,
2.0,Green,112,0,332,332,332,m,0.431086063385,2016_Jul_15_1138,
4.0,Yellow,112,0,333,333,333,m,0.375343084335,2016_Jul_15_1138,
5.0,LightPink,112,0,334,334,334,m,0.415212869644,2016_Jul_15_1138,
7.0,Brown,112,0,335,335,335,m,0.423084974289,2016_Jul_15_1138,
3.0,Purple,112,0,336,336,336,m,0.423072099686,2016_Jul_15_1138,
9.0,Orange,112,0,337,337,337,m,0.43138885498,2016_Jul_15_1138,
nan,nan,112,0,338,338,338,z,0.479282140732,2016_Jul_15_1138,
2.0,DarkGray,112,0,339,339,339,m,0.223346948624,2016_Jul_15_1138,
4.0,Yellow,112,0,340,340,340,m,0.263056993484,2016_Jul_15_1138,
5.0,LightPink,112,0,341,341,341,m,0.295157909393,2016_Jul_15_1138,
7.0,Brown,112,0,342,342,342,m,0.223140001297,2016_Jul_15_1138,
3.0,Blue,112,0,343,343,343,m,0.335296869278,2016_Jul_15_1138,
1.0,Red,112,0,344,344,344,m,0.495188951492,2016_Jul_15_1138,
8.0,Green,112,0,345,345,345,m,0.351105928421,2016_Jul_15_1138,
6.0,Purple,112,0,346,346,346,m,0.367144107819,2016_Jul_15_1138,
5.0,Orange,112,0,347,347,347,m,0.303025960922,2016_Jul_15_1138,
7.0,DarkGray,112,0,348,348,348,m,0.487221002579,2016_Jul_15_1138,
3.0,Blue,112,0,349,349,349,m,0.359046936035,2016_Jul_15_1138,
1.0,Red,112,0,350,350,350,m,0.319063901901,2016_Jul_15_1138,
8.0,Green,112,0,351,351,351,m,0.278959035873,2016_Jul_15_1138,
6.0,Yellow,112,0,352,352,352,m,0.295040845871,2016_Jul_15_1138,
5.0,LightPink,112,0,353,353,353,m,0.359086990356,2016_Jul_15_1138,
7.0,Brown,112,0,354,354,354,m,0.3589220047,2016_Jul_15_1138,
3.0,Purple,112,0,355,355,355,m,0.398915052414,2016_Jul_15_1138,
1.0,Orange,112,0,356,356,356,m,0.407056093216,2016_Jul_15_1138,
nan,nan,112,0,357,357,357,z,0.470679998398,2016_Jul_15_1138,
8.0,DarkGray,112,0,358,358,358,m,0.350922107697,2016_Jul_15_1138,
nan,nan,112,0,359,359,359,m,0.247122049332,2016_Jul_15_1138,
6.0,Blue,112,0,360,360,360,m,0.519003152847,2016_Jul_15_1138,
9.0,Red,112,0,361,361,361,m,0.406987190247,2016_Jul_15_1138,
nan,nan,112,0,362,362,362,,,2016_Jul_15_1138,
2.0,Green,112,0,363,363,363,,,2016_Jul_15_1138,
nan,nan,112,0,364,364,364,z,0.447026014328,2016_Jul_15_1138,
4.0,Yellow,112,0,365,365,365,m,0.21488904953,2016_Jul_15_1138,
1.0,LightPink,112,0,366,366,366,m,0.238728046417,2016_Jul_15_1138,
8.0,Brown,112,0,367,367,367,m,0.247028827667,2016_Jul_15_1138,
6.0,Purple,112,0,368,368,368,m,0.23876786232,2016_Jul_15_1138,
5.0,Orange,112,0,369,369,369,m,0.190652132034,2016_Jul_15_1138,
7.0,DarkGray,112,0,370,370,370,m,0.118857145309,2016_Jul_15_1138,
3.0,Blue,112,0,371,371,371,m,0.126750946045,2016_Jul_15_1138,
9.0,Red,112,0,372,372,372,m,0.246742963791,2016_Jul_15_1138,
nan,nan,112,0,373,373,373,z,0.422658920288,2016_Jul_15_1138,
2.0,Green,112,0,374,374,374,m,0.246606111526,2016_Jul_15_1138,
4.0,Purple,112,0,375,375,375,m,0.222422838211,2016_Jul_15_1138,
5.0,Orange,112,0,376,376,376,m,0.206568002701,2016_Jul_15_1138,
7.0,DarkGray,112,0,377,377,377,m,0.230746030807,2016_Jul_15_1138,
3.0,Blue,112,0,378,378,378,m,0.198829889297,2016_Jul_15_1138,
9.0,Red,112,0,379,379,379,m,0.0866639614105,2016_Jul_15_1138,
2.0,Green,112,0,380,380,380,m,0.198436021805,2016_Jul_15_1138,
4.0,Purple,112,0,381,381,381,m,0.214386940002,2016_Jul_15_1138,
5.0,Orange,112,0,382,382,382,m,0.174562931061,2016_Jul_15_1138,
7.0,DarkGray,112,0,383,383,383,m,0.254708051682,2016_Jul_15_1138,
nan,nan,112,0,384,384,384,z,0.414600849152,2016_Jul_15_1138,
3.0,Blue,112,0,385,385,385,m,0.310523033142,2016_Jul_15_1138,
nan,nan,112,0,386,386,386,m,0.238497972488,2016_Jul_15_1138,
1.0,Red,112,0,387,387,387,m,0.406294107437,2016_Jul_15_1138,
nan,nan,112,0,388,388,388,z,0.438687086105,2016_Jul_15_1138,
8.0,Green,112,0,389,389,389,m,0.342375993729,2016_Jul_15_1138,
6.0,Purple,112,0,390,390,390,m,0.262503862381,2016_Jul_15_1138,
9.0,Orange,112,0,391,391,391,m,0.238508939743,2016_Jul_15_1138,
2.0,DarkGray,112,0,392,392,392,m,0.30246090889,2016_Jul_15_1138,
4.0,Blue,112,0,393,393,393,m,0.302587985992,2016_Jul_15_1138,
1.0,Red,112,0,394,394,394,m,0.286466836929,2016_Jul_15_1138,
8.0,Green,112,0,395,395,395,m,0.286505222321,2016_Jul_15_1138,
6.0,Yellow,112,0,396,396,396,m,0.366126060486,2016_Jul_15_1138,
5.0,LightPink,112,0,397,397,397,m,0.374485015869,2016_Jul_15_1138,
7.0,Brown,112,0,398,398,398,m,0.422435045242,2016_Jul_15_1138,
3.0,Purple,112,0,399,399,399,m,0.438276052475,2016_Jul_15_1138,
9.0,Orange,112,0,400,400,400,m,0.454348087311,2016_Jul_15_1138,
2.0,DarkGray,112,0,401,401,401,m,0.438194990158,2016_Jul_15_1138,
4.0,Blue,112,0,402,402,402,m,0.398209095001,2016_Jul_15_1138,
1.0,Red,112,0,403,403,403,m,0.414309978485,2016_Jul_15_1138,
8.0,Green,112,0,404,404,404,m,0.406375169754,2016_Jul_15_1138,
6.0,Yellow,112,0,405,405,405,m,0.398262023926,2016_Jul_15_1138,
nan,nan,112,0,406,406,406,z,0.454348087311,2016_Jul_15_1138,
9.0,LightPink,112,0,407,407,407,m,0.374290943146,2016_Jul_15_1138,
2.0,Brown,112,0,408,408,408,m,0.342271089554,2016_Jul_15_1138,
4.0,Blue,112,0,409,409,409,m,0.27020907402,2016_Jul_15_1138,
1.0,Red,112,0,410,410,410,m,0.270267009735,2016_Jul_15_1138,
8.0,Green,112,0,411,411,411,m,0.269889116287,2016_Jul_15_1138,
6.0,Yellow,112,0,412,412,412,m,0.278076887131,2016_Jul_15_1138,
5.0,LightPink,112,0,413,413,413,m,0.318078041077,2016_Jul_15_1138,
7.0,Brown,112,0,414,414,414,m,0.326019048691,2016_Jul_15_1138,
3.0,Blue,112,0,415,415,415,m,0.357863903046,2016_Jul_15_1138,
1.0,Red,112,0,416,416,416,m,0.406079053879,2016_Jul_15_1138,
8.0,Green,112,0,417,417,417,m,0.374191999435,2016_Jul_15_1138,
6.0,Purple,112,0,418,418,418,m,0.309970855713,2016_Jul_15_1138,
nan,nan,112,0,419,419,419,z,0.429951906204,2016_Jul_15_1138,
5.0,Orange,112,0,420,420,420,m,0.286057949066,2016_Jul_15_1138,
7.0,DarkGray,112,0,421,421,421,m,0.278057098389,2016_Jul_15_1138,
nan,nan,112,0,422,422,422,m,0.22979593277,2016_Jul_15_1138,
3.0,Blue,112,0,423,423,423,m,0.36601805687,2016_Jul_15_1138,
9.0,Red,112,0,424,424,424,m,0.293982028961,2016_Jul_15_1138,
2.0,Green,112,0,425,425,425,m,0.293823957443,2016_Jul_15_1138,
4.0,Purple,112,0,426,426,426,m,0.205765962601,2016_Jul_15_1138,
1.0,Orange,112,0,427,427,427,m,0.237892866135,2016_Jul_15_1138,
8.0,DarkGray,112,0,428,428,428,m,0.261683940887,2016_Jul_15_1138,
6.0,Blue,112,0,429,429,429,m,0.365813970566,2016_Jul_15_1138,
9.0,Red,112,0,430,430,430,m,0.374050855637,2016_Jul_15_1138,
2.0,Green,112,0,431,431,431,m,0.389967918396,2016_Jul_15_1138,
4.0,Yellow,112,0,432,432,432,m,0.365924119949,2016_Jul_15_1138,
1.0,LightPink,112,0,433,433,433,m,0.40561413765,2016_Jul_15_1138,
8.0,Brown,112,0,434,434,434,m,0.381640195847,2016_Jul_15_1138,
6.0,Blue,112,0,435,435,435,m,0.365999937057,2016_Jul_15_1138,
5.0,Red,112,0,436,436,436,m,0.341818094254,2016_Jul_15_1138,
7.0,Green,112,0,437,437,437,m,0.357456922531,2016_Jul_15_1138,
3.0,Purple,112,0,438,438,438,m,0.333487033844,2016_Jul_15_1138,
nan,nan,112,0,439,439,439,z,0.461636066437,2016_Jul_15_1138,
9.0,Orange,112,0,440,440,440,m,0.325493097305,2016_Jul_15_1138,
2.0,DarkGray,112,0,441,441,441,m,0.293682813644,2016_Jul_15_1138,
4.0,Yellow,112,0,442,442,442,m,0.285588026047,2016_Jul_15_1138,
5.0,LightPink,112,0,443,443,443,m,0.317788124084,2016_Jul_15_1138,
7.0,Brown,112,0,444,444,444,m,0.341608047485,2016_Jul_15_1138,
3.0,Purple,112,0,445,445,445,m,0.357428073883,2016_Jul_15_1138,
9.0,Orange,112,0,446,446,446,m,0.397513866425,2016_Jul_15_1138,
2.0,DarkGray,112,0,447,447,447,m,0.413335084915,2016_Jul_15_1138,
4.0,nan,112,0,448,448,448,m,0.469563007355,2016_Jul_15_1138,
