dot_values,colour_values,participant,.thisRepN,.thisTrialN,.thisN,.thisIndex,response,response_time,date,
nan,Blue,113,0,0,0,0,,,2016_Jul_15_1448,
1.0,Red,113,0,1,1,1,m,0.210134029388,2016_Jul_15_1448,
8.0,Green,113,0,2,2,2,m,0.586229085922,2016_Jul_15_1448,
6.0,Yellow,113,0,3,3,3,m,0.434507131577,2016_Jul_15_1448,
5.0,LightPink,113,0,4,4,4,m,0.290453910828,2016_Jul_15_1448,
7.0,Brown,113,0,5,5,5,m,0.0743188858032,2016_Jul_15_1448,
3.0,Blue,113,0,6,6,6,,,2016_Jul_15_1448,
9.0,Red,113,0,7,7,7,m,0.506544113159,2016_Jul_15_1448,
2.0,Green,113,0,8,8,8,m,0.426333189011,2016_Jul_15_1448,
4.0,Yellow,113,0,9,9,9,m,0.394366979599,2016_Jul_15_1448,
1.0,LightPink,113,0,10,10,10,m,0.306429862976,2016_Jul_15_1448,
8.0,Brown,113,0,11,11,11,m,0.154487133026,2016_Jul_15_1448,
nan,nan,113,0,12,12,12,m,0.0422620773315,2016_Jul_15_1448,
6.0,Purple,113,0,13,13,13,m,0.386473894119,2016_Jul_15_1448,
9.0,Orange,113,0,14,14,14,m,0.370316982269,2016_Jul_15_1448,
2.0,DarkGray,113,0,15,15,15,m,0.130431890488,2016_Jul_15_1448,
4.0,Blue,113,0,16,16,16,m,0.274126768112,2016_Jul_15_1448,
5.0,Red,113,0,17,17,17,m,0.28225684166,2016_Jul_15_1448,
7.0,Green,113,0,18,18,18,m,0.314013957977,2016_Jul_15_1448,
3.0,Yellow,113,0,19,19,19,m,0.298110961914,2016_Jul_15_1448,
nan,nan,113,0,20,20,20,z,0.346212863922,2016_Jul_15_1448,
9.0,LightPink,113,0,21,21,21,m,0.282295942307,2016_Jul_15_1448,
2.0,Brown,113,0,22,22,22,m,0.186038017273,2016_Jul_15_1448,
4.0,Blue,113,0,23,23,23,m,0.17023396492,2016_Jul_15_1448,
1.0,Red,113,0,24,24,24,m,0.22599697113,2016_Jul_15_1448,
8.0,Green,113,0,25,25,25,m,0.218227148056,2016_Jul_15_1448,
nan,nan,113,0,26,26,26,m,0.274302005768,2016_Jul_15_1448,
6.0,Yellow,113,0,27,27,27,m,0.32195687294,2016_Jul_15_1448,
5.0,LightPink,113,0,28,28,28,m,0.274229049683,2016_Jul_15_1448,
7.0,Brown,113,0,29,29,29,m,0.18629693985,2016_Jul_15_1448,
3.0,Blue,113,0,30,30,30,m,0.0821940898895,2016_Jul_15_1448,
1.0,Red,113,0,31,31,31,m,0.0102889537811,2016_Jul_15_1448,
8.0,Green,113,0,32,32,32,m,0.0339510440826,2016_Jul_15_1448,
6.0,Purple,113,0,33,33,33,z,0.19393992424,2016_Jul_15_1448,
5.0,Orange,113,0,34,34,34,m,0.594185113907,2016_Jul_15_1448,
7.0,DarkGray,113,0,35,35,35,m,0.537909984589,2016_Jul_15_1448,
3.0,Yellow,113,0,36,36,36,m,0.529973983765,2016_Jul_15_1448,
1.0,LightPink,113,0,37,37,37,m,0.546235084534,2016_Jul_15_1448,
8.0,Brown,113,0,38,38,38,m,0.498229026794,2016_Jul_15_1448,
6.0,Blue,113,0,39,39,39,m,0.513966083527,2016_Jul_15_1448,
5.0,Red,113,0,40,40,40,m,0.522191047668,2016_Jul_15_1448,
nan,nan,113,0,41,41,41,z,0.410163879395,2016_Jul_15_1448,
7.0,Green,113,0,42,42,42,m,0.29784989357,2016_Jul_15_1448,
3.0,Purple,113,0,43,43,43,m,0.314103126526,2016_Jul_15_1448,
1.0,Orange,113,0,44,44,44,m,0.537825107574,2016_Jul_15_1448,
8.0,DarkGray,113,0,45,45,45,m,0.425837993622,2016_Jul_15_1448,
6.0,Yellow,113,0,46,46,46,m,0.369794845581,2016_Jul_15_1448,
5.0,LightPink,113,0,47,47,47,m,0.346079826355,2016_Jul_15_1448,
7.0,Brown,113,0,48,48,48,m,0.346064090729,2016_Jul_15_1448,
3.0,Purple,113,0,49,49,49,m,0.353949069977,2016_Jul_15_1448,
9.0,Orange,113,0,50,50,50,m,0.313737869263,2016_Jul_15_1448,
2.0,DarkGray,113,0,51,51,51,m,0.305887937546,2016_Jul_15_1448,
4.0,Blue,113,0,52,52,52,m,0.289946079254,2016_Jul_15_1448,
1.0,Red,113,0,53,53,53,m,0.281754016876,2016_Jul_15_1448,
nan,nan,113,0,54,54,54,z,0.409964084625,2016_Jul_15_1448,
8.0,Green,113,0,55,55,55,m,0.32980799675,2016_Jul_15_1448,
6.0,Purple,113,0,56,56,56,m,0.322015047073,2016_Jul_15_1448,
9.0,Orange,113,0,57,57,57,m,0.305986881256,2016_Jul_15_1448,
2.0,DarkGray,113,0,58,58,58,m,0.321753978729,2016_Jul_15_1448,
4.0,Blue,113,0,59,59,59,m,0.44978094101,2016_Jul_15_1448,
5.0,Red,113,0,60,60,60,m,0.409661054611,2016_Jul_15_1448,
7.0,Green,113,0,61,61,61,m,0.401912927628,2016_Jul_15_1448,
3.0,Purple,113,0,62,62,62,m,0.345752954483,2016_Jul_15_1448,
1.0,Orange,113,0,63,63,63,m,0.329922199249,2016_Jul_15_1448,
8.0,DarkGray,113,0,64,64,64,m,0.329621076584,2016_Jul_15_1448,
6.0,Blue,113,0,65,65,65,m,0.31386089325,2016_Jul_15_1448,
9.0,Red,113,0,66,66,66,m,0.297544002533,2016_Jul_15_1448,
2.0,Green,113,0,67,67,67,m,0.329810142517,2016_Jul_15_1448,
4.0,Yellow,113,0,68,68,68,m,0.289522886276,2016_Jul_15_1448,
1.0,LightPink,113,0,69,69,69,m,0.289709806442,2016_Jul_15_1448,
8.0,Brown,113,0,70,70,70,m,0.3136510849,2016_Jul_15_1448,
6.0,Blue,113,0,71,71,71,m,0.281815052032,2016_Jul_15_1448,
5.0,Red,113,0,72,72,72,m,0.337517976761,2016_Jul_15_1448,
7.0,Green,113,0,73,73,73,m,0.305689096451,2016_Jul_15_1448,
nan,nan,113,0,74,74,74,z,0.401840925217,2016_Jul_15_1448,
3.0,Yellow,113,0,75,75,75,m,0.289632081985,2016_Jul_15_1448,
1.0,LightPink,113,0,76,76,76,m,0.281426906586,2016_Jul_15_1448,
nan,nan,113,0,77,77,77,z,0.417672872543,2016_Jul_15_1448,
8.0,Brown,113,0,78,78,78,m,0.28168296814,2016_Jul_15_1448,
6.0,Purple,113,0,79,79,79,m,0.297554016113,2016_Jul_15_1448,
9.0,Orange,113,0,80,80,80,m,0.321656942368,2016_Jul_15_1448,
nan,nan,113,0,81,81,81,z,0.337606191635,2016_Jul_15_1448,
2.0,DarkGray,113,0,82,82,82,m,0.30558514595,2016_Jul_15_1448,
4.0,Yellow,113,0,83,83,83,m,0.225388050079,2016_Jul_15_1448,
1.0,LightPink,113,0,84,84,84,m,0.249432086945,2016_Jul_15_1448,
8.0,Brown,113,0,85,85,85,m,0.249749898911,2016_Jul_15_1448,
6.0,Blue,113,0,86,86,86,m,0.257631063461,2016_Jul_15_1448,
5.0,Red,113,0,87,87,87,m,0.281563043594,2016_Jul_15_1448,
7.0,Green,113,0,88,88,88,m,0.273320913315,2016_Jul_15_1448,
3.0,Yellow,113,0,89,89,89,m,0.273344993591,2016_Jul_15_1448,
1.0,LightPink,113,0,90,90,90,m,0.297712087631,2016_Jul_15_1448,
8.0,Brown,113,0,91,91,91,m,0.265425205231,2016_Jul_15_1448,
nan,nan,113,0,92,92,92,z,0.321589946747,2016_Jul_15_1448,
6.0,Purple,113,0,93,93,93,m,0.329681158066,2016_Jul_15_1448,
5.0,Orange,113,0,94,94,94,m,0.233290910721,2016_Jul_15_1448,
7.0,DarkGray,113,0,95,95,95,m,0.209345817566,2016_Jul_15_1448,
3.0,Blue,113,0,96,96,96,m,0.241558074951,2016_Jul_15_1448,
1.0,Red,113,0,97,97,97,m,0.161401033401,2016_Jul_15_1448,
8.0,Green,113,0,98,98,98,m,0.129560947418,2016_Jul_15_1448,
6.0,Yellow,113,0,99,99,99,m,0.0894751548767,2016_Jul_15_1448,
5.0,LightPink,113,0,100,100,100,m,0.0732450485229,2016_Jul_15_1448,
7.0,Brown,113,0,101,101,101,m,0.073529958725,2016_Jul_15_1448,
nan,nan,113,0,102,102,102,m,0.129297018051,2016_Jul_15_1448,
3.0,Blue,113,0,103,103,103,m,0.089329957962,2016_Jul_15_1448,
1.0,Red,113,0,104,104,104,m,0.121377944946,2016_Jul_15_1448,
8.0,Green,113,0,105,105,105,m,0.0893759727478,2016_Jul_15_1448,
nan,nan,113,0,106,106,106,m,0.0733349323273,2016_Jul_15_1448,
6.0,Yellow,113,0,107,107,107,m,0.0492458343506,2016_Jul_15_1448,
9.0,LightPink,113,0,108,108,108,m,0.0813519954681,2016_Jul_15_1448,
2.0,Brown,113,0,109,109,109,m,0.15311217308,2016_Jul_15_1448,
4.0,Purple,113,0,110,110,110,m,0.297341823578,2016_Jul_15_1448,
5.0,Orange,113,0,111,111,111,m,0.289155960083,2016_Jul_15_1448,
7.0,DarkGray,113,0,112,112,112,m,0.40907907486,2016_Jul_15_1448,
3.0,Yellow,113,0,113,113,113,m,0.313428163528,2016_Jul_15_1448,
9.0,LightPink,113,0,114,114,114,m,0.321244001389,2016_Jul_15_1448,
nan,nan,113,0,115,115,115,z,0.393418073654,2016_Jul_15_1448,
2.0,Brown,113,0,116,116,116,m,0.296998023987,2016_Jul_15_1448,
4.0,Blue,113,0,117,117,117,m,0.233168840408,2016_Jul_15_1448,
nan,nan,113,0,118,118,118,z,0.385130882263,2016_Jul_15_1448,
1.0,Red,113,0,119,119,119,m,0.32132601738,2016_Jul_15_1448,
8.0,Green,113,0,120,120,120,m,0.257273197174,2016_Jul_15_1448,
nan,nan,113,0,121,121,121,m,0.273407936096,2016_Jul_15_1448,
6.0,Purple,113,0,122,122,122,m,0.249436855316,2016_Jul_15_1448,
9.0,Orange,113,0,123,123,123,m,0.225130081177,2016_Jul_15_1448,
2.0,DarkGray,113,0,124,124,124,m,0.168982028961,2016_Jul_15_1448,
4.0,Blue,113,0,125,125,125,m,0.224953889847,2016_Jul_15_1448,
1.0,Red,113,0,126,126,126,m,0.248953819275,2016_Jul_15_1448,
8.0,Green,113,0,127,127,127,m,0.265204906464,2016_Jul_15_1448,
6.0,Yellow,113,0,128,128,128,m,0.281123161316,2016_Jul_15_1448,
nan,nan,113,0,129,129,129,z,0.337157011032,2016_Jul_15_1448,
9.0,LightPink,113,0,130,130,130,m,0.368890047073,2016_Jul_15_1448,
2.0,Brown,113,0,131,131,131,m,0.400877952576,2016_Jul_15_1448,
4.0,Blue,113,0,132,132,132,m,0.377127885818,2016_Jul_15_1448,
nan,nan,113,0,133,133,133,z,0.360991954803,2016_Jul_15_1448,
1.0,Red,113,0,134,134,134,m,0.385035037994,2016_Jul_15_1448,
8.0,Green,113,0,135,135,135,m,0.37682890892,2016_Jul_15_1448,
6.0,Purple,113,0,136,136,136,m,0.408791065216,2016_Jul_15_1448,
5.0,Orange,113,0,137,137,137,m,0.448708057404,2016_Jul_15_1448,
7.0,DarkGray,113,0,138,138,138,m,0.465218067169,2016_Jul_15_1448,
3.0,Blue,113,0,139,139,139,m,0.5207259655,2016_Jul_15_1448,
nan,nan,113,0,140,140,140,z,0.376928091049,2016_Jul_15_1448,
9.0,Red,113,0,141,141,141,m,0.321114063263,2016_Jul_15_1448,
2.0,Green,113,0,142,142,142,m,0.321094989777,2016_Jul_15_1448,
nan,nan,113,0,143,143,143,z,0.344838857651,2016_Jul_15_1448,
4.0,Purple,113,0,144,144,144,m,0.288771152496,2016_Jul_15_1448,
1.0,Orange,113,0,145,145,145,m,0.280719995499,2016_Jul_15_1448,
8.0,DarkGray,113,0,146,146,146,m,0.280859947205,2016_Jul_15_1448,
6.0,Blue,113,0,147,147,147,m,0.272814035416,2016_Jul_15_1448,
5.0,Red,113,0,148,148,148,m,0.280960083008,2016_Jul_15_1448,
7.0,Green,113,0,149,149,149,m,0.280987024307,2016_Jul_15_1448,
3.0,Purple,113,0,150,150,150,m,0.288763999939,2016_Jul_15_1448,
9.0,Orange,113,0,151,151,151,m,0.296940088272,2016_Jul_15_1448,
2.0,DarkGray,113,0,152,152,152,m,0.280993938446,2016_Jul_15_1448,
4.0,Yellow,113,0,153,153,153,m,0.280755996704,2016_Jul_15_1448,
1.0,LightPink,113,0,154,154,154,m,0.264703035355,2016_Jul_15_1448,
8.0,Brown,113,0,155,155,155,m,0.280997991562,2016_Jul_15_1448,
6.0,Purple,113,0,156,156,156,m,0.328788995743,2016_Jul_15_1448,
9.0,Orange,113,0,157,157,157,m,0.304759025574,2016_Jul_15_1448,
nan,nan,113,0,158,158,158,z,0.328869819641,2016_Jul_15_1448,
2.0,DarkGray,113,0,159,159,159,m,0.296928167343,2016_Jul_15_1448,
4.0,Blue,113,0,160,160,160,m,0.312699079514,2016_Jul_15_1448,
5.0,Red,113,0,161,161,161,m,0.328617811203,2016_Jul_15_1448,
7.0,Green,113,0,162,162,162,m,0.360769987106,2016_Jul_15_1448,
nan,nan,113,0,163,163,163,z,0.360907077789,2016_Jul_15_1448,
3.0,Purple,113,0,164,164,164,m,0.336810827255,2016_Jul_15_1448,
9.0,Orange,113,0,165,165,165,m,0.264559984207,2016_Jul_15_1448,
2.0,DarkGray,113,0,166,166,166,m,0.280644893646,2016_Jul_15_1448,
4.0,Yellow,113,0,167,167,167,m,0.240607023239,2016_Jul_15_1448,
5.0,LightPink,113,0,168,168,168,m,0.26472401619,2016_Jul_15_1448,
7.0,Brown,113,0,169,169,169,m,0.264499187469,2016_Jul_15_1448,
3.0,Blue,113,0,170,170,170,m,0.304580926895,2016_Jul_15_1448,
1.0,Red,113,0,171,171,171,m,0.288584947586,2016_Jul_15_1448,
8.0,Green,113,0,172,172,172,m,0.272747039795,2016_Jul_15_1448,
6.0,Yellow,113,0,173,173,173,m,0.256709814072,2016_Jul_15_1448,
5.0,LightPink,113,0,174,174,174,m,0.232647895813,2016_Jul_15_1448,
7.0,Brown,113,0,175,175,175,m,0.304661989212,2016_Jul_15_1448,
3.0,Purple,113,0,176,176,176,m,0.312616109848,2016_Jul_15_1448,
1.0,Orange,113,0,177,177,177,m,0.320596933365,2016_Jul_15_1448,
8.0,DarkGray,113,0,178,178,178,m,0.320750951767,2016_Jul_15_1448,
6.0,Blue,113,0,179,179,179,m,0.320652961731,2016_Jul_15_1448,
9.0,Red,113,0,180,180,180,m,0.328362941742,2016_Jul_15_1448,
2.0,Green,113,0,181,181,181,m,0.304608106613,2016_Jul_15_1448,
4.0,Yellow,113,0,182,182,182,m,0.264643907547,2016_Jul_15_1448,
5.0,LightPink,113,0,183,183,183,m,0.216454029083,2016_Jul_15_1448,
7.0,Brown,113,0,184,184,184,m,0.296549081802,2016_Jul_15_1448,
3.0,Blue,113,0,185,185,185,m,0.312285900116,2016_Jul_15_1448,
1.0,Red,113,0,186,186,186,m,0.288362026215,2016_Jul_15_1448,
8.0,Green,113,0,187,187,187,m,0.29648900032,2016_Jul_15_1448,
6.0,Purple,113,0,188,188,188,m,0.272436857224,2016_Jul_15_1448,
nan,nan,113,0,189,189,189,z,0.456300020218,2016_Jul_15_1448,
9.0,Orange,113,0,190,190,190,m,0.216266870499,2016_Jul_15_1448,
nan,nan,113,0,191,191,191,m,0.184365034103,2016_Jul_15_1448,
2.0,DarkGray,113,0,192,192,192,m,0.240578889847,2016_Jul_15_1448,
4.0,Yellow,113,0,193,193,193,m,0.24050283432,2016_Jul_15_1448,
5.0,LightPink,113,0,194,194,194,m,0.160447120667,2016_Jul_15_1448,
7.0,Brown,113,0,195,195,195,m,0.248376131058,2016_Jul_15_1448,
3.0,Blue,113,0,196,196,196,m,0.192224979401,2016_Jul_15_1448,
9.0,Red,113,0,197,197,197,m,0.2804479599,2016_Jul_15_1448,
2.0,Green,113,0,198,198,198,,,2016_Jul_15_1448,
4.0,Purple,113,0,199,199,199,m,0.200484991074,2016_Jul_15_1448,
1.0,Orange,113,0,200,200,200,m,0.264490842819,2016_Jul_15_1448,
8.0,DarkGray,113,0,201,201,201,m,0.304119110107,2016_Jul_15_1448,
6.0,Blue,113,0,202,202,202,m,0.392510175705,2016_Jul_15_1448,
9.0,Red,113,0,203,203,203,m,0.392011880875,2016_Jul_15_1448,
2.0,Green,113,0,204,204,204,m,0.320235967636,2016_Jul_15_1448,
nan,nan,113,0,205,205,205,z,0.360383987427,2016_Jul_15_1448,
4.0,Purple,113,0,206,206,206,m,0.304419994354,2016_Jul_15_1448,
1.0,Orange,113,0,207,207,207,m,0.40839099884,2016_Jul_15_1448,
nan,nan,113,0,208,208,208,z,0.416024923325,2016_Jul_15_1448,
8.0,DarkGray,113,0,209,209,209,m,0.320392847061,2016_Jul_15_1448,
6.0,Yellow,113,0,210,210,210,m,0.33615899086,2016_Jul_15_1448,
9.0,LightPink,113,0,211,211,211,m,0.336009025574,2016_Jul_15_1448,
2.0,Brown,113,0,212,212,212,m,0.352397203445,2016_Jul_15_1448,
4.0,Purple,113,0,213,213,213,m,0.312330961227,2016_Jul_15_1448,
1.0,Orange,113,0,214,214,214,m,0.320011138916,2016_Jul_15_1448,
8.0,DarkGray,113,0,215,215,215,m,0.30419588089,2016_Jul_15_1448,
nan,nan,113,0,216,216,216,z,0.431972026825,2016_Jul_15_1448,
6.0,Yellow,113,0,217,217,217,m,0.304200172424,2016_Jul_15_1448,
9.0,LightPink,113,0,218,218,218,m,0.264093160629,2016_Jul_15_1448,
2.0,Brown,113,0,219,219,219,m,0.272156953812,2016_Jul_15_1448,
4.0,Blue,113,0,220,220,220,m,0.232119083405,2016_Jul_15_1448,
5.0,Red,113,0,221,221,221,m,0.255816936493,2016_Jul_15_1448,
7.0,Green,113,0,222,222,222,m,0.168043136597,2016_Jul_15_1448,
3.0,Purple,113,0,223,223,223,m,0.127927064896,2016_Jul_15_1448,
nan,nan,113,0,224,224,224,m,0.0558800697327,2016_Jul_15_1448,
9.0,Orange,113,0,225,225,225,,,2016_Jul_15_1448,
2.0,DarkGray,113,0,226,226,226,,,2016_Jul_15_1448,
nan,nan,113,0,227,227,227,z,0.431938886642,2016_Jul_15_1448,
4.0,Blue,113,0,228,228,228,m,0.0638661384583,2016_Jul_15_1448,
5.0,Red,113,0,229,229,229,,,2016_Jul_15_1448,
7.0,Green,113,0,230,230,230,m,0.0320379734039,2016_Jul_15_1448,
3.0,Yellow,113,0,231,231,231,,,2016_Jul_15_1448,
9.0,LightPink,113,0,232,232,232,m,0.0477159023285,2016_Jul_15_1448,
2.0,Brown,113,0,233,233,233,m,0.0881540775299,2016_Jul_15_1448,
4.0,Blue,113,0,234,234,234,m,0.0880229473114,2016_Jul_15_1448,
nan,nan,113,0,235,235,235,m,0.0881159305573,2016_Jul_15_1448,
5.0,Red,113,0,236,236,236,,,2016_Jul_15_1448,
7.0,Green,113,0,237,237,237,,,2016_Jul_15_1448,
3.0,Yellow,113,0,238,238,238,m,0.0721719264984,2016_Jul_15_1448,
9.0,LightPink,113,0,239,239,239,m,0.239834070206,2016_Jul_15_1448,
2.0,Brown,113,0,240,240,240,m,0.43979382515,2016_Jul_15_1448,
4.0,Purple,113,0,241,241,241,,,2016_Jul_15_1448,
5.0,Orange,113,0,242,242,242,,,2016_Jul_15_1448,
7.0,DarkGray,113,0,243,243,243,m,0.479985952377,2016_Jul_15_1448,
nan,nan,113,0,244,244,244,z,0.479922056198,2016_Jul_15_1448,
3.0,Yellow,113,0,245,245,245,m,0.319719076157,2016_Jul_15_1448,
nan,nan,113,0,246,246,246,m,0.247637987137,2016_Jul_15_1448,
9.0,LightPink,113,0,247,247,247,m,0.30383682251,2016_Jul_15_1448,
2.0,Brown,113,0,248,248,248,m,0.247841835022,2016_Jul_15_1448,
4.0,Purple,113,0,249,249,249,m,0.183907032013,2016_Jul_15_1448,
1.0,Orange,113,0,250,250,250,m,0.127840042114,2016_Jul_15_1448,
8.0,DarkGray,113,0,251,251,251,m,0.0718760490417,2016_Jul_15_1448,
6.0,Yellow,113,0,252,252,252,m,0.0718350410461,2016_Jul_15_1448,
5.0,LightPink,113,0,253,253,253,m,0.0635230541229,2016_Jul_15_1448,
7.0,Brown,113,0,254,254,254,m,0.0639381408691,2016_Jul_15_1448,
3.0,Blue,113,0,255,255,255,,,2016_Jul_15_1448,
1.0,Red,113,0,256,256,256,,,2016_Jul_15_1448,
8.0,Green,113,0,257,257,257,,,2016_Jul_15_1448,
6.0,Purple,113,0,258,258,258,,,2016_Jul_15_1448,
nan,nan,113,0,259,259,259,z,0.367867946625,2016_Jul_15_1448,
9.0,Orange,113,0,260,260,260,,,2016_Jul_15_1448,
2.0,DarkGray,113,0,261,261,261,m,0.535673141479,2016_Jul_15_1448,
4.0,Blue,113,0,262,262,262,m,0.359708070755,2016_Jul_15_1448,
5.0,Red,113,0,263,263,263,m,0.303633928299,2016_Jul_15_1448,
7.0,Green,113,0,264,264,264,m,0.239595890045,2016_Jul_15_1448,
3.0,Yellow,113,0,265,265,265,m,0.14358997345,2016_Jul_15_1448,
9.0,LightPink,113,0,266,266,266,m,0.0557141304016,2016_Jul_15_1448,
2.0,Brown,113,0,267,267,267,,,2016_Jul_15_1448,
4.0,Purple,113,0,268,268,268,m,0.559320926666,2016_Jul_15_1448,
5.0,Orange,113,0,269,269,269,m,0.463575124741,2016_Jul_15_1448,
7.0,DarkGray,113,0,270,270,270,m,0.35949921608,2016_Jul_15_1448,
3.0,Yellow,113,0,271,271,271,m,0.263751983643,2016_Jul_15_1448,
1.0,LightPink,113,0,272,272,272,m,0.159399032593,2016_Jul_15_1448,
8.0,Brown,113,0,273,273,273,m,0.0636720657349,2016_Jul_15_1448,
nan,nan,113,0,274,274,274,z,0.399629116058,2016_Jul_15_1448,
6.0,Blue,113,0,275,275,275,,,2016_Jul_15_1448,
9.0,Red,113,0,276,276,276,m,0.551620960236,2016_Jul_15_1448,
2.0,Green,113,0,277,277,277,m,0.407445907593,2016_Jul_15_1448,
4.0,Yellow,113,0,278,278,278,m,0.255393981934,2016_Jul_15_1448,
5.0,LightPink,113,0,279,279,279,m,0.135284900665,2016_Jul_15_1448,
7.0,Brown,113,0,280,280,280,m,0.0314710140228,2016_Jul_15_1448,
3.0,Blue,113,0,281,281,281,m,0.455461025238,2016_Jul_15_1448,
9.0,Red,113,0,282,282,282,m,0.231222867966,2016_Jul_15_1448,
2.0,Green,113,0,283,283,283,,,2016_Jul_15_1448,
4.0,Yellow,113,0,284,284,284,m,0.567275047302,2016_Jul_15_1448,
1.0,LightPink,113,0,285,285,285,m,0.567579984665,2016_Jul_15_1448,
8.0,Brown,113,0,286,286,286,,,2016_Jul_15_1448,
6.0,Blue,113,0,287,287,287,m,0.495296001434,2016_Jul_15_1448,
5.0,Red,113,0,288,288,288,m,0.31940984726,2016_Jul_15_1448,
7.0,Green,113,0,289,289,289,m,0.215374946594,2016_Jul_15_1448,
nan,nan,113,0,290,290,290,m,0.0231640338898,2016_Jul_15_1448,
3.0,Purple,113,0,291,291,291,m,0.543450117111,2016_Jul_15_1448,
9.0,Orange,113,0,292,292,292,m,0.367279052734,2016_Jul_15_1448,
2.0,DarkGray,113,0,293,293,293,m,0.215337991714,2016_Jul_15_1448,
nan,nan,113,0,294,294,294,m,0.0632979869843,2016_Jul_15_1448,
4.0,Blue,113,0,295,295,295,m,0.551451921463,2016_Jul_15_1448,
1.0,Red,113,0,296,296,296,m,0.327110052109,2016_Jul_15_1448,
8.0,Green,113,0,297,297,297,m,0.143424987793,2016_Jul_15_1448,
6.0,Purple,113,0,298,298,298,m,0.0311629772186,2016_Jul_15_1448,
5.0,Orange,113,0,299,299,299,m,0.0230741500854,2016_Jul_15_1448,
7.0,DarkGray,113,0,300,300,300,m,0.102998018265,2016_Jul_15_1448,
3.0,Yellow,113,0,301,301,301,,,2016_Jul_15_1448,
9.0,LightPink,113,0,302,302,302,,,2016_Jul_15_1448,
nan,nan,113,0,303,303,303,z,0.478996992111,2016_Jul_15_1448,
2.0,Brown,113,0,304,304,304,m,0.0712060928345,2016_Jul_15_1448,
4.0,Purple,113,0,305,305,305,m,0.0232191085815,2016_Jul_15_1448,
5.0,Orange,113,0,306,306,306,m,0.471219062805,2016_Jul_15_1448,
7.0,DarkGray,113,0,307,307,307,m,0.342987060547,2016_Jul_15_1448,
3.0,Blue,113,0,308,308,308,m,0.16724896431,2016_Jul_15_1448,
1.0,Red,113,0,309,309,309,m,0.127289056778,2016_Jul_15_1448,
nan,nan,113,0,310,310,310,z,0.447038888931,2016_Jul_15_1448,
8.0,Green,113,0,311,311,311,,,2016_Jul_15_1448,
6.0,Purple,113,0,312,312,312,m,0.423336982727,2016_Jul_15_1448,
9.0,Orange,113,0,313,313,313,m,0.295020103455,2016_Jul_15_1448,
2.0,DarkGray,113,0,314,314,314,m,0.142921924591,2016_Jul_15_1448,
nan,nan,113,0,315,315,315,m,0.0151078701019,2016_Jul_15_1448,
4.0,Blue,113,0,316,316,316,,,2016_Jul_15_1448,
5.0,Red,113,0,317,317,317,m,0.583165168762,2016_Jul_15_1448,
7.0,Green,113,0,318,318,318,m,0.454993009567,2016_Jul_15_1448,
nan,nan,113,0,319,319,319,z,0.382833957672,2016_Jul_15_1448,
3.0,Purple,113,0,320,320,320,m,0.510854959488,2016_Jul_15_1448,
1.0,Orange,113,0,321,321,321,m,0.335011959076,2016_Jul_15_1448,
8.0,DarkGray,113,0,322,322,322,m,0.231066942215,2016_Jul_15_1448,
6.0,Yellow,113,0,323,323,323,m,0.151234865189,2016_Jul_15_1448,
9.0,LightPink,113,0,324,324,324,m,0.0308527946472,2016_Jul_15_1448,
2.0,Brown,113,0,325,325,325,m,0.558807849884,2016_Jul_15_1448,
4.0,Blue,113,0,326,326,326,m,0.43880200386,2016_Jul_15_1448,
1.0,Red,113,0,327,327,327,m,0.319000005722,2016_Jul_15_1448,
8.0,Green,113,0,328,328,328,m,0.287128925323,2016_Jul_15_1448,
6.0,Purple,113,0,329,329,329,m,0.270908117294,2016_Jul_15_1448,
5.0,Orange,113,0,330,330,330,m,0.335119962692,2016_Jul_15_1448,
7.0,DarkGray,113,0,331,331,331,m,0.367111206055,2016_Jul_15_1448,
nan,nan,113,0,332,332,332,z,0.438972949982,2016_Jul_15_1448,
3.0,Yellow,113,0,333,333,333,m,0.335067033768,2016_Jul_15_1448,
1.0,LightPink,113,0,334,334,334,m,0.374779939651,2016_Jul_15_1448,
8.0,Brown,113,0,335,335,335,m,0.37501001358,2016_Jul_15_1448,
6.0,Purple,113,0,336,336,336,m,0.438858985901,2016_Jul_15_1448,
5.0,Orange,113,0,337,337,337,m,0.399047136307,2016_Jul_15_1448,
nan,nan,113,0,338,338,338,z,0.406858921051,2016_Jul_15_1448,
7.0,DarkGray,113,0,339,339,339,m,0.319122076035,2016_Jul_15_1448,
3.0,Yellow,113,0,340,340,340,m,0.326620101929,2016_Jul_15_1448,
1.0,LightPink,113,0,341,341,341,m,0.319035053253,2016_Jul_15_1448,
8.0,Brown,113,0,342,342,342,m,0.34284901619,2016_Jul_15_1448,
6.0,Blue,113,0,343,343,343,m,0.318741083145,2016_Jul_15_1448,
9.0,Red,113,0,344,344,344,m,0.310796022415,2016_Jul_15_1448,
2.0,Green,113,0,345,345,345,m,0.334915876389,2016_Jul_15_1448,
4.0,Purple,113,0,346,346,346,m,0.294742107391,2016_Jul_15_1448,
1.0,Orange,113,0,347,347,347,m,0.230939149857,2016_Jul_15_1448,
8.0,DarkGray,113,0,348,348,348,m,0.310658931732,2016_Jul_15_1448,
nan,nan,113,0,349,349,349,z,0.358808994293,2016_Jul_15_1448,
6.0,Blue,113,0,350,350,350,m,0.214750051498,2016_Jul_15_1448,
9.0,Red,113,0,351,351,351,m,0.262710094452,2016_Jul_15_1448,
2.0,Green,113,0,352,352,352,m,0.206480026245,2016_Jul_15_1448,
4.0,Purple,113,0,353,353,353,m,0.158576965332,2016_Jul_15_1448,
5.0,Orange,113,0,354,354,354,m,0.166482925415,2016_Jul_15_1448,
7.0,DarkGray,113,0,355,355,355,m,0.214697122574,2016_Jul_15_1448,
nan,nan,113,0,356,356,356,m,0.238615989685,2016_Jul_15_1448,
3.0,Yellow,113,0,357,357,357,m,0.246757984161,2016_Jul_15_1448,
nan,nan,113,0,358,358,358,m,0.182639122009,2016_Jul_15_1448,
9.0,LightPink,113,0,359,359,359,m,0.174541950226,2016_Jul_15_1448,
nan,nan,113,0,360,360,360,z,0.294770956039,2016_Jul_15_1448,
2.0,Brown,113,0,361,361,361,m,0.0865280628204,2016_Jul_15_1448,
4.0,Purple,113,0,362,362,362,m,0.206740140915,2016_Jul_15_1448,
5.0,Orange,113,0,363,363,363,m,0.110610961914,2016_Jul_15_1448,
nan,nan,113,0,364,364,364,m,0.0224311351776,2016_Jul_15_1448,
7.0,DarkGray,113,0,365,365,365,m,0.134351015091,2016_Jul_15_1448,
3.0,Yellow,113,0,366,366,366,m,0.0787420272827,2016_Jul_15_1448,
1.0,LightPink,113,0,367,367,367,,,2016_Jul_15_1448,
8.0,Brown,113,0,368,368,368,,,2016_Jul_15_1448,
6.0,Blue,113,0,369,369,369,,,2016_Jul_15_1448,
9.0,Red,113,0,370,370,370,m,0.0544669628143,2016_Jul_15_1448,
2.0,Green,113,0,371,371,371,m,0.110543012619,2016_Jul_15_1448,
nan,nan,113,0,372,372,372,m,0.150385856628,2016_Jul_15_1448,
4.0,Purple,113,0,373,373,373,m,0.0224099159241,2016_Jul_15_1448,
5.0,Orange,113,0,374,374,374,,,2016_Jul_15_1448,
7.0,DarkGray,113,0,375,375,375,,,2016_Jul_15_1448,
3.0,Blue,113,0,376,376,376,,,2016_Jul_15_1448,
1.0,Red,113,0,377,377,377,,,2016_Jul_15_1448,
8.0,Green,113,0,378,378,378,m,0.0543439388275,2016_Jul_15_1448,
6.0,Purple,113,0,379,379,379,m,0.118566036224,2016_Jul_15_1448,
9.0,Orange,113,0,380,380,380,m,0.198567152023,2016_Jul_15_1448,
2.0,DarkGray,113,0,381,381,381,m,0.214416980743,2016_Jul_15_1448,
4.0,Blue,113,0,382,382,382,m,0.2783639431,2016_Jul_15_1448,
1.0,Red,113,0,383,383,383,m,0.286290168762,2016_Jul_15_1448,
8.0,Green,113,0,384,384,384,m,0.294183969498,2016_Jul_15_1448,
6.0,Yellow,113,0,385,385,385,m,0.310549974442,2016_Jul_15_1448,
5.0,LightPink,113,0,386,386,386,m,0.318264961243,2016_Jul_15_1448,
7.0,Brown,113,0,387,387,387,m,0.342349052429,2016_Jul_15_1448,
3.0,Purple,113,0,388,388,388,m,0.326512098312,2016_Jul_15_1448,
1.0,Orange,113,0,389,389,389,m,0.414236068726,2016_Jul_15_1448,
8.0,DarkGray,113,0,390,390,390,m,0.446123123169,2016_Jul_15_1448,
6.0,Yellow,113,0,391,391,391,m,0.462222099304,2016_Jul_15_1448,
9.0,LightPink,113,0,392,392,392,m,0.558415174484,2016_Jul_15_1448,
2.0,Brown,113,0,393,393,393,m,0.56627202034,2016_Jul_15_1448,
4.0,Purple,113,0,394,394,394,m,0.598271131516,2016_Jul_15_1448,
5.0,Orange,113,0,395,395,395,m,0.57434296608,2016_Jul_15_1448,
7.0,DarkGray,113,0,396,396,396,m,0.51825594902,2016_Jul_15_1448,
3.0,Yellow,113,0,397,397,397,m,0.518311977386,2016_Jul_15_1448,
1.0,LightPink,113,0,398,398,398,m,0.598008155823,2016_Jul_15_1448,
8.0,Brown,113,0,399,399,399,m,0.59836101532,2016_Jul_15_1448,
6.0,Blue,113,0,400,400,400,m,0.582102775574,2016_Jul_15_1448,
5.0,Red,113,0,401,401,401,m,0.582015991211,2016_Jul_15_1448,
7.0,Green,113,0,402,402,402,m,0.574018001556,2016_Jul_15_1448,
3.0,Yellow,113,0,403,403,403,,,2016_Jul_15_1448,
1.0,LightPink,113,0,404,404,404,m,0.598084926605,2016_Jul_15_1448,
8.0,Brown,113,0,405,405,405,,,2016_Jul_15_1448,
nan,nan,113,0,406,406,406,z,0.446197986603,2016_Jul_15_1448,
6.0,Blue,113,0,407,407,407,m,0.318015098572,2016_Jul_15_1448,
5.0,Red,113,0,408,408,408,m,0.270195960999,2016_Jul_15_1448,
7.0,Green,113,0,409,409,409,m,0.269888162613,2016_Jul_15_1448,
3.0,Yellow,113,0,410,410,410,m,0.182028055191,2016_Jul_15_1448,
9.0,LightPink,113,0,411,411,411,m,0.134097099304,2016_Jul_15_1448,
2.0,Brown,113,0,412,412,412,m,0.117998838425,2016_Jul_15_1448,
4.0,Purple,113,0,413,413,413,m,0.0539329051971,2016_Jul_15_1448,
5.0,Orange,113,0,414,414,414,m,0.0778911113739,2016_Jul_15_1448,
7.0,DarkGray,113,0,415,415,415,m,0.0541517734528,2016_Jul_15_1448,
nan,nan,113,0,416,416,416,m,0.0542099475861,2016_Jul_15_1448,
3.0,Yellow,113,0,417,417,417,m,0.054013967514,2016_Jul_15_1448,
9.0,LightPink,113,0,418,418,418,m,0.0940239429474,2016_Jul_15_1448,
2.0,Brown,113,0,419,419,419,m,0.0858449935913,2016_Jul_15_1448,
4.0,Purple,113,0,420,420,420,m,0.053759098053,2016_Jul_15_1448,
5.0,Orange,113,0,421,421,421,m,0.0619080066681,2016_Jul_15_1448,
7.0,DarkGray,113,0,422,422,422,m,0.077892780304,2016_Jul_15_1448,
3.0,Blue,113,0,423,423,423,m,0.0540089607239,2016_Jul_15_1448,
1.0,Red,113,0,424,424,424,m,0.0779349803925,2016_Jul_15_1448,
8.0,Green,113,0,425,425,425,m,0.0619080066681,2016_Jul_15_1448,
6.0,Purple,113,0,426,426,426,m,0.029862165451,2016_Jul_15_1448,
9.0,Orange,113,0,427,427,427,,,2016_Jul_15_1448,
2.0,DarkGray,113,0,428,428,428,,,2016_Jul_15_1448,
4.0,Yellow,113,0,429,429,429,,,2016_Jul_15_1448,
5.0,LightPink,113,0,430,430,430,,,2016_Jul_15_1448,
7.0,Brown,113,0,431,431,431,,,2016_Jul_15_1448,
3.0,Purple,113,0,432,432,432,m,0.549677848816,2016_Jul_15_1448,
9.0,Orange,113,0,433,433,433,m,0.565668821335,2016_Jul_15_1448,
2.0,DarkGray,113,0,434,434,434,m,0.517669200897,2016_Jul_15_1448,
4.0,Yellow,113,0,435,435,435,m,0.461951971054,2016_Jul_15_1448,
5.0,LightPink,113,0,436,436,436,m,0.493552207947,2016_Jul_15_1448,
7.0,Brown,113,0,437,437,437,m,0.549736022949,2016_Jul_15_1448,
3.0,Blue,113,0,438,438,438,m,0.565952062607,2016_Jul_15_1448,
1.0,Red,113,0,439,439,439,,,2016_Jul_15_1448,
8.0,Green,113,0,440,440,440,,,2016_Jul_15_1448,
6.0,Yellow,113,0,441,441,441,,,2016_Jul_15_1448,
9.0,LightPink,113,0,442,442,442,,,2016_Jul_15_1448,
2.0,Brown,113,0,443,443,443,,,2016_Jul_15_1448,
4.0,Purple,113,0,444,444,444,,,2016_Jul_15_1448,
5.0,Orange,113,0,445,445,445,,,2016_Jul_15_1448,
7.0,DarkGray,113,0,446,446,446,m,0.509565830231,2016_Jul_15_1448,
3.0,Yellow,113,0,447,447,447,m,0.477467060089,2016_Jul_15_1448,
1.0,LightPink,113,0,448,448,448,m,0.477828025818,2016_Jul_15_1448,
8.0,Brown,113,0,449,449,449,m,0.421611070633,2016_Jul_15_1448,
6.0,Purple,113,0,450,450,450,m,0.437447071075,2016_Jul_15_1448,
9.0,Orange,113,0,451,451,451,m,0.357646942139,2016_Jul_15_1448,
nan,nan,113,0,452,452,452,z,0.461788892746,2016_Jul_15_1448,
2.0,DarkGray,113,0,453,453,453,m,0.413447141647,2016_Jul_15_1448,
4.0,nan,113,0,454,454,454,m,0.461369037628,2016_Jul_15_1448,
nan,nan,113,0,455,455,455,z,0.453731775284,2016_Jul_15_1448,
