dot_values,colour_values,participant,.thisRepN,.thisTrialN,.thisN,.thisIndex,response,response_time,date,
nan,Blue,117,0,0,0,0,,,2016_Jul_27_1439,
1.0,Red,117,0,1,1,1,m,0.344876050949,2016_Jul_27_1439,
8.0,Green,117,0,2,2,2,m,0.0334680080414,2016_Jul_27_1439,
6.0,Purple,117,0,3,3,3,m,0.385307073593,2016_Jul_27_1439,
5.0,Orange,117,0,4,4,4,m,0.369242191315,2016_Jul_27_1439,
7.0,DarkGray,117,0,5,5,5,m,0.409425020218,2016_Jul_27_1439,
3.0,Yellow,117,0,6,6,6,m,0.385046005249,2016_Jul_27_1439,
1.0,LightPink,117,0,7,7,7,m,0.305180072784,2016_Jul_27_1439,
8.0,Brown,117,0,8,8,8,m,0.297199964523,2016_Jul_27_1439,
6.0,Purple,117,0,9,9,9,m,0.241066932678,2016_Jul_27_1439,
nan,nan,117,0,10,10,10,z,0.513318061829,2016_Jul_27_1439,
9.0,Orange,117,0,11,11,11,m,0.433506965637,2016_Jul_27_1439,
2.0,DarkGray,117,0,12,12,12,m,0.289198875427,2016_Jul_27_1439,
nan,nan,117,0,13,13,13,z,0.473149061203,2016_Jul_27_1439,
4.0,Blue,117,0,14,14,14,m,0.585155010223,2016_Jul_27_1439,
5.0,Red,117,0,15,15,15,m,0.329026937485,2016_Jul_27_1439,
7.0,Green,117,0,16,16,16,m,0.313139915466,2016_Jul_27_1439,
3.0,Yellow,117,0,17,17,17,m,0.24909901619,2016_Jul_27_1439,
9.0,LightPink,117,0,18,18,18,m,0.312991857529,2016_Jul_27_1439,
2.0,Brown,117,0,19,19,19,m,0.305079936981,2016_Jul_27_1439,
4.0,Purple,117,0,20,20,20,m,0.265084981918,2016_Jul_27_1439,
1.0,Orange,117,0,21,21,21,m,0.249033927917,2016_Jul_27_1439,
nan,nan,117,0,22,22,22,z,0.465129852295,2016_Jul_27_1439,
8.0,DarkGray,117,0,23,23,23,m,0.329169988632,2016_Jul_27_1439,
6.0,Yellow,117,0,24,24,24,m,0.201110124588,2016_Jul_27_1439,
5.0,LightPink,117,0,25,25,25,m,0.36102604866,2016_Jul_27_1439,
7.0,Brown,117,0,26,26,26,m,0.41687297821,2016_Jul_27_1439,
3.0,Blue,117,0,27,27,27,m,0.337226867676,2016_Jul_27_1439,
9.0,Red,117,0,28,28,28,m,0.321217060089,2016_Jul_27_1439,
2.0,Green,117,0,29,29,29,m,0.384932994843,2016_Jul_27_1439,
4.0,Purple,117,0,30,30,30,m,0.296909093857,2016_Jul_27_1439,
5.0,Orange,117,0,31,31,31,m,0.305052042007,2016_Jul_27_1439,
7.0,DarkGray,117,0,32,32,32,m,0.264975786209,2016_Jul_27_1439,
3.0,Blue,117,0,33,33,33,m,0.304928064346,2016_Jul_27_1439,
1.0,Red,117,0,34,34,34,m,0.320776224136,2016_Jul_27_1439,
8.0,Green,117,0,35,35,35,m,0.336776971817,2016_Jul_27_1439,
nan,nan,117,0,36,36,36,z,0.489020109177,2016_Jul_27_1439,
6.0,Purple,117,0,37,37,37,m,0.37696814537,2016_Jul_27_1439,
5.0,Orange,117,0,38,38,38,m,0.2329018116,2016_Jul_27_1439,
7.0,DarkGray,117,0,39,39,39,m,0.240671157837,2016_Jul_27_1439,
3.0,Yellow,117,0,40,40,40,m,0.14487195015,2016_Jul_27_1439,
9.0,LightPink,117,0,41,41,41,m,0.224748849869,2016_Jul_27_1439,
2.0,Brown,117,0,42,42,42,m,0.249032020569,2016_Jul_27_1439,
4.0,Blue,117,0,43,43,43,m,0.232917070389,2016_Jul_27_1439,
5.0,Red,117,0,44,44,44,m,0.353115081787,2016_Jul_27_1439,
7.0,Green,117,0,45,45,45,m,0.449074029922,2016_Jul_27_1439,
3.0,Yellow,117,0,46,46,46,m,0.36897611618,2016_Jul_27_1439,
1.0,LightPink,117,0,47,47,47,m,0.312874078751,2016_Jul_27_1439,
8.0,Brown,117,0,48,48,48,m,0.336724996567,2016_Jul_27_1439,
6.0,Blue,117,0,49,49,49,m,0.33692407608,2016_Jul_27_1439,
5.0,Red,117,0,50,50,50,m,0.353064060211,2016_Jul_27_1439,
7.0,Green,117,0,51,51,51,m,0.360795021057,2016_Jul_27_1439,
3.0,Purple,117,0,52,52,52,m,0.296703100204,2016_Jul_27_1439,
nan,nan,117,0,53,53,53,z,0.512683868408,2016_Jul_27_1439,
9.0,Orange,117,0,54,54,54,m,0.376580953598,2016_Jul_27_1439,
2.0,DarkGray,117,0,55,55,55,m,0.280910015106,2016_Jul_27_1439,
4.0,Blue,117,0,56,56,56,m,0.296724081039,2016_Jul_27_1439,
nan,nan,117,0,57,57,57,z,0.512548923492,2016_Jul_27_1439,
5.0,Red,117,0,58,58,58,m,0.312663078308,2016_Jul_27_1439,
7.0,Green,117,0,59,59,59,m,0.248466014862,2016_Jul_27_1439,
3.0,Yellow,117,0,60,60,60,m,0.376606941223,2016_Jul_27_1439,
1.0,LightPink,117,0,61,61,61,m,0.376920938492,2016_Jul_27_1439,
8.0,Brown,117,0,62,62,62,m,0.36054110527,2016_Jul_27_1439,
6.0,Purple,117,0,63,63,63,m,0.352720975876,2016_Jul_27_1439,
9.0,Orange,117,0,64,64,64,m,0.296648979187,2016_Jul_27_1439,
2.0,DarkGray,117,0,65,65,65,m,0.3125,2016_Jul_27_1439,
4.0,Yellow,117,0,66,66,66,m,0.256443023682,2016_Jul_27_1439,
1.0,LightPink,117,0,67,67,67,m,0.256470918655,2016_Jul_27_1439,
8.0,Brown,117,0,68,68,68,m,0.208766937256,2016_Jul_27_1439,
6.0,Blue,117,0,69,69,69,m,0.256693124771,2016_Jul_27_1439,
nan,nan,117,0,70,70,70,m,0.232531070709,2016_Jul_27_1439,
5.0,Red,117,0,71,71,71,m,0.42440199852,2016_Jul_27_1439,
7.0,Green,117,0,72,72,72,m,0.296484947205,2016_Jul_27_1439,
3.0,Yellow,117,0,73,73,73,m,0.304452896118,2016_Jul_27_1439,
9.0,LightPink,117,0,74,74,74,m,0.280686855316,2016_Jul_27_1439,
2.0,Brown,117,0,75,75,75,m,0.304467916489,2016_Jul_27_1439,
4.0,Purple,117,0,76,76,76,m,0.304603815079,2016_Jul_27_1439,
1.0,Orange,117,0,77,77,77,m,0.288662910461,2016_Jul_27_1439,
8.0,DarkGray,117,0,78,78,78,m,0.416333913803,2016_Jul_27_1439,
6.0,Blue,117,0,79,79,79,m,0.336400985718,2016_Jul_27_1439,
9.0,Red,117,0,80,80,80,m,0.296659946442,2016_Jul_27_1439,
2.0,Green,117,0,81,81,81,m,0.288502931595,2016_Jul_27_1439,
4.0,Purple,117,0,82,82,82,m,0.280306100845,2016_Jul_27_1439,
1.0,Orange,117,0,83,83,83,m,0.272493839264,2016_Jul_27_1439,
8.0,DarkGray,117,0,84,84,84,m,0.304592847824,2016_Jul_27_1439,
6.0,Blue,117,0,85,85,85,m,0.360163211823,2016_Jul_27_1439,
9.0,Red,117,0,86,86,86,m,0.344438076019,2016_Jul_27_1439,
2.0,Green,117,0,87,87,87,m,0.336483001709,2016_Jul_27_1439,
4.0,Purple,117,0,88,88,88,m,0.344331026077,2016_Jul_27_1439,
5.0,Orange,117,0,89,89,89,m,0.352504968643,2016_Jul_27_1439,
7.0,DarkGray,117,0,90,90,90,m,0.488168001175,2016_Jul_27_1439,
3.0,Blue,117,0,91,91,91,m,0.400393009186,2016_Jul_27_1439,
nan,nan,117,0,92,92,92,z,0.368362903595,2016_Jul_27_1439,
9.0,Red,117,0,93,93,93,m,0.328343153,2016_Jul_27_1439,
2.0,Green,117,0,94,94,94,m,0.280281066895,2016_Jul_27_1439,
4.0,Purple,117,0,95,95,95,m,0.25627207756,2016_Jul_27_1439,
nan,nan,117,0,96,96,96,m,0.248520851135,2016_Jul_27_1439,
1.0,Orange,117,0,97,97,97,m,0.424400806427,2016_Jul_27_1439,
8.0,DarkGray,117,0,98,98,98,m,0.360286951065,2016_Jul_27_1439,
nan,nan,117,0,99,99,99,z,0.408216953278,2016_Jul_27_1439,
6.0,Blue,117,0,100,100,100,m,0.2880859375,2016_Jul_27_1439,
5.0,Red,117,0,101,101,101,m,0.304010868073,2016_Jul_27_1439,
nan,nan,117,0,102,102,102,z,0.392266988754,2016_Jul_27_1439,
7.0,Green,117,0,103,103,103,m,0.2885389328,2016_Jul_27_1439,
3.0,Yellow,117,0,104,104,104,m,0.232009887695,2016_Jul_27_1439,
1.0,LightPink,117,0,105,105,105,m,0.232014894485,2016_Jul_27_1439,
nan,nan,117,0,106,106,106,z,0.376441955566,2016_Jul_27_1439,
8.0,Brown,117,0,107,107,107,m,0.256124019623,2016_Jul_27_1439,
6.0,Blue,117,0,108,108,108,m,0.255997180939,2016_Jul_27_1439,
5.0,Red,117,0,109,109,109,m,0.279950857162,2016_Jul_27_1439,
7.0,Green,117,0,110,110,110,m,0.344038963318,2016_Jul_27_1439,
nan,nan,117,0,111,111,111,z,0.368160009384,2016_Jul_27_1439,
3.0,Yellow,117,0,112,112,112,m,0.263921022415,2016_Jul_27_1439,
1.0,LightPink,117,0,113,113,113,m,0.23197388649,2016_Jul_27_1439,
nan,nan,117,0,114,114,114,z,0.424231052399,2016_Jul_27_1439,
8.0,Brown,117,0,115,115,115,m,0.248303890228,2016_Jul_27_1439,
6.0,Blue,117,0,116,116,116,m,0.272001028061,2016_Jul_27_1439,
nan,nan,117,0,117,117,117,z,0.343986988068,2016_Jul_27_1439,
9.0,Red,117,0,118,118,118,m,0.216093063354,2016_Jul_27_1439,
2.0,Green,117,0,119,119,119,m,0.312161922455,2016_Jul_27_1439,
4.0,Purple,117,0,120,120,120,m,0.359862804413,2016_Jul_27_1439,
nan,nan,117,0,121,121,121,z,0.360153913498,2016_Jul_27_1439,
1.0,Orange,117,0,122,122,122,m,0.312031030655,2016_Jul_27_1439,
8.0,DarkGray,117,0,123,123,123,m,0.392258167267,2016_Jul_27_1439,
6.0,Blue,117,0,124,124,124,m,0.383886098862,2016_Jul_27_1439,
5.0,Red,117,0,125,125,125,m,0.439882993698,2016_Jul_27_1439,
7.0,Green,117,0,126,126,126,m,0.440119028091,2016_Jul_27_1439,
3.0,Yellow,117,0,127,127,127,m,0.495934963226,2016_Jul_27_1439,
1.0,LightPink,117,0,128,128,128,,,2016_Jul_27_1439,
8.0,Brown,117,0,129,129,129,m,0.55986905098,2016_Jul_27_1439,
6.0,Purple,117,0,130,130,130,m,0.45605301857,2016_Jul_27_1439,
9.0,Orange,117,0,131,131,131,m,0.415874004364,2016_Jul_27_1439,
nan,nan,117,0,132,132,132,z,0.45597410202,2016_Jul_27_1439,
2.0,DarkGray,117,0,133,133,133,m,0.311612129211,2016_Jul_27_1439,
4.0,Blue,117,0,134,134,134,m,0.359714031219,2016_Jul_27_1439,
5.0,Red,117,0,135,135,135,m,0.295935869217,2016_Jul_27_1439,
7.0,Green,117,0,136,136,136,m,0.391917943954,2016_Jul_27_1439,
3.0,Purple,117,0,137,137,137,m,0.367811918259,2016_Jul_27_1439,
9.0,Orange,117,0,138,138,138,m,0.471698999405,2016_Jul_27_1439,
2.0,DarkGray,117,0,139,139,139,m,0.551553964615,2016_Jul_27_1439,
4.0,Yellow,117,0,140,140,140,,,2016_Jul_27_1439,
5.0,LightPink,117,0,141,141,141,m,0.479650020599,2016_Jul_27_1439,
7.0,Brown,117,0,142,142,142,m,0.423547029495,2016_Jul_27_1439,
3.0,Purple,117,0,143,143,143,m,0.391820192337,2016_Jul_27_1439,
9.0,Orange,117,0,144,144,144,m,0.407942056656,2016_Jul_27_1439,
2.0,DarkGray,117,0,145,145,145,m,0.40759396553,2016_Jul_27_1439,
4.0,Blue,117,0,146,146,146,m,0.271847963333,2016_Jul_27_1439,
5.0,Red,117,0,147,147,147,m,0.343567848206,2016_Jul_27_1439,
7.0,Green,117,0,148,148,148,m,0.327462911606,2016_Jul_27_1439,
3.0,Yellow,117,0,149,149,149,m,0.327433109283,2016_Jul_27_1439,
1.0,LightPink,117,0,150,150,150,m,0.351861953735,2016_Jul_27_1439,
8.0,Brown,117,0,151,151,151,m,0.303465127945,2016_Jul_27_1439,
6.0,Blue,117,0,152,152,152,m,0.399615049362,2016_Jul_27_1439,
5.0,Red,117,0,153,153,153,m,0.327655076981,2016_Jul_27_1439,
7.0,Green,117,0,154,154,154,m,0.383378982544,2016_Jul_27_1439,
3.0,Yellow,117,0,155,155,155,m,0.279745101929,2016_Jul_27_1439,
9.0,LightPink,117,0,156,156,156,m,0.279763936996,2016_Jul_27_1439,
2.0,Brown,117,0,157,157,157,m,0.303442955017,2016_Jul_27_1439,
4.0,Purple,117,0,158,158,158,m,0.263679027557,2016_Jul_27_1439,
1.0,Orange,117,0,159,159,159,m,0.239497184753,2016_Jul_27_1439,
8.0,DarkGray,117,0,160,160,160,m,0.335362911224,2016_Jul_27_1439,
nan,nan,117,0,161,161,161,z,0.367326974869,2016_Jul_27_1439,
6.0,Yellow,117,0,162,162,162,m,0.271411895752,2016_Jul_27_1439,
5.0,LightPink,117,0,163,163,163,m,0.223706007004,2016_Jul_27_1439,
7.0,Brown,117,0,164,164,164,m,0.239282131195,2016_Jul_27_1439,
3.0,Blue,117,0,165,165,165,m,0.175221920013,2016_Jul_27_1439,
1.0,Red,117,0,166,166,166,m,0.231511116028,2016_Jul_27_1439,
8.0,Green,117,0,167,167,167,m,0.26335310936,2016_Jul_27_1439,
6.0,Purple,117,0,168,168,168,m,0.279590129852,2016_Jul_27_1439,
nan,nan,117,0,169,169,169,z,0.351581096649,2016_Jul_27_1439,
5.0,Orange,117,0,170,170,170,m,0.247298002243,2016_Jul_27_1439,
7.0,DarkGray,117,0,171,171,171,m,0.127550840378,2016_Jul_27_1439,
3.0,Blue,117,0,172,172,172,m,0.335238933563,2016_Jul_27_1439,
9.0,Red,117,0,173,173,173,m,0.32729101181,2016_Jul_27_1439,
2.0,Green,117,0,174,174,174,m,0.367254018784,2016_Jul_27_1439,
4.0,Purple,117,0,175,175,175,m,0.319471120834,2016_Jul_27_1439,
5.0,Orange,117,0,176,176,176,m,0.311342000961,2016_Jul_27_1439,
7.0,DarkGray,117,0,177,177,177,m,0.44720697403,2016_Jul_27_1439,
nan,nan,117,0,178,178,178,z,0.407056808472,2016_Jul_27_1439,
3.0,Yellow,117,0,179,179,179,m,0.0954518318176,2016_Jul_27_1439,
1.0,LightPink,117,0,180,180,180,m,0.199289083481,2016_Jul_27_1439,
8.0,Brown,117,0,181,181,181,m,0.0952868461609,2016_Jul_27_1439,
6.0,Blue,117,0,182,182,182,m,0.191395044327,2016_Jul_27_1439,
5.0,Red,117,0,183,183,183,m,0.223440170288,2016_Jul_27_1439,
7.0,Green,117,0,184,184,184,m,0.287074804306,2016_Jul_27_1439,
3.0,Purple,117,0,185,185,185,m,0.351181030273,2016_Jul_27_1439,
1.0,Orange,117,0,186,186,186,m,0.367131948471,2016_Jul_27_1439,
8.0,DarkGray,117,0,187,187,187,m,0.343192815781,2016_Jul_27_1439,
6.0,Yellow,117,0,188,188,188,m,0.311281919479,2016_Jul_27_1439,
5.0,LightPink,117,0,189,189,189,m,0.335202932358,2016_Jul_27_1439,
7.0,Brown,117,0,190,190,190,m,0.255262851715,2016_Jul_27_1439,
3.0,Purple,117,0,191,191,191,m,0.247058868408,2016_Jul_27_1439,
9.0,Orange,117,0,192,192,192,m,0.278922080994,2016_Jul_27_1439,
2.0,DarkGray,117,0,193,193,193,m,0.303044080734,2016_Jul_27_1439,
nan,nan,117,0,194,194,194,z,0.319274902344,2016_Jul_27_1439,
4.0,Blue,117,0,195,195,195,m,0.0872189998627,2016_Jul_27_1439,
5.0,Red,117,0,196,196,196,m,0.0949730873108,2016_Jul_27_1439,
7.0,Green,117,0,197,197,197,m,0.199306964874,2016_Jul_27_1439,
3.0,Purple,117,0,198,198,198,m,0.254855871201,2016_Jul_27_1439,
9.0,Orange,117,0,199,199,199,m,0.278977870941,2016_Jul_27_1439,
2.0,DarkGray,117,0,200,200,200,m,0.279267072678,2016_Jul_27_1439,
nan,nan,117,0,201,201,201,z,0.327078819275,2016_Jul_27_1439,
4.0,Blue,117,0,202,202,202,m,0.255221843719,2016_Jul_27_1439,
1.0,Red,117,0,203,203,203,m,0.222961902618,2016_Jul_27_1439,
8.0,Green,117,0,204,204,204,m,0.303064823151,2016_Jul_27_1439,
6.0,Yellow,117,0,205,205,205,m,0.327129125595,2016_Jul_27_1439,
9.0,LightPink,117,0,206,206,206,m,0.431123018265,2016_Jul_27_1439,
2.0,Brown,117,0,207,207,207,m,0.494971036911,2016_Jul_27_1439,
4.0,Blue,117,0,208,208,208,m,0.342872858047,2016_Jul_27_1439,
1.0,Red,117,0,209,209,209,m,0.36678814888,2016_Jul_27_1439,
8.0,Green,117,0,210,210,210,m,0.455090999603,2016_Jul_27_1439,
6.0,Yellow,117,0,211,211,211,m,0.40674495697,2016_Jul_27_1439,
9.0,LightPink,117,0,212,212,212,m,0.326836109161,2016_Jul_27_1439,
2.0,Brown,117,0,213,213,213,m,0.318782091141,2016_Jul_27_1439,
4.0,Purple,117,0,214,214,214,m,0.358820915222,2016_Jul_27_1439,
1.0,Orange,117,0,215,215,215,m,0.38262295723,2016_Jul_27_1439,
8.0,DarkGray,117,0,216,216,216,m,0.311017990112,2016_Jul_27_1439,
nan,nan,117,0,217,217,217,z,0.31097984314,2016_Jul_27_1439,
6.0,Yellow,117,0,218,218,218,m,0.230809926987,2016_Jul_27_1439,
nan,nan,117,0,219,219,219,m,0.182626962662,2016_Jul_27_1439,
9.0,LightPink,117,0,220,220,220,m,0.286692857742,2016_Jul_27_1439,
2.0,Brown,117,0,221,221,221,m,0.335084915161,2016_Jul_27_1439,
4.0,Purple,117,0,222,222,222,m,0.310963869095,2016_Jul_27_1439,
1.0,Orange,117,0,223,223,223,m,0.358787059784,2016_Jul_27_1439,
8.0,DarkGray,117,0,224,224,224,m,0.318648099899,2016_Jul_27_1439,
6.0,Yellow,117,0,225,225,225,m,0.310981988907,2016_Jul_27_1439,
9.0,LightPink,117,0,226,226,226,m,0.366901159286,2016_Jul_27_1439,
2.0,Brown,117,0,227,227,227,m,0.390777111053,2016_Jul_27_1439,
4.0,Blue,117,0,228,228,228,m,0.462882041931,2016_Jul_27_1439,
5.0,Red,117,0,229,229,229,m,0.334816932678,2016_Jul_27_1439,
7.0,Green,117,0,230,230,230,m,0.310618877411,2016_Jul_27_1439,
3.0,Yellow,117,0,231,231,231,m,0.318976163864,2016_Jul_27_1439,
1.0,LightPink,117,0,232,232,232,m,0.294779062271,2016_Jul_27_1439,
8.0,Brown,117,0,233,233,233,m,0.294792890549,2016_Jul_27_1439,
6.0,Purple,117,0,234,234,234,m,0.286828041077,2016_Jul_27_1439,
9.0,Orange,117,0,235,235,235,m,0.342595100403,2016_Jul_27_1439,
2.0,DarkGray,117,0,236,236,236,m,0.310591220856,2016_Jul_27_1439,
4.0,Blue,117,0,237,237,237,m,0.310696125031,2016_Jul_27_1439,
5.0,Red,117,0,238,238,238,m,0.390399217606,2016_Jul_27_1439,
7.0,Green,117,0,239,239,239,m,0.39839887619,2016_Jul_27_1439,
3.0,Yellow,117,0,240,240,240,m,0.366432905197,2016_Jul_27_1439,
nan,nan,117,0,241,241,241,z,0.422771930695,2016_Jul_27_1439,
9.0,LightPink,117,0,242,242,242,m,0.254767179489,2016_Jul_27_1439,
2.0,Brown,117,0,243,243,243,m,0.174530982971,2016_Jul_27_1439,
4.0,Purple,117,0,244,244,244,m,0.262484073639,2016_Jul_27_1439,
5.0,Orange,117,0,245,245,245,m,0.27850985527,2016_Jul_27_1439,
nan,nan,117,0,246,246,246,z,0.430456161499,2016_Jul_27_1439,
7.0,DarkGray,117,0,247,247,247,m,0.238678216934,2016_Jul_27_1439,
3.0,Blue,117,0,248,248,248,m,0.294414997101,2016_Jul_27_1439,
1.0,Red,117,0,249,249,249,m,0.25453209877,2016_Jul_27_1439,
8.0,Green,117,0,250,250,250,m,0.318367004395,2016_Jul_27_1439,
nan,nan,117,0,251,251,251,z,0.390629053116,2016_Jul_27_1439,
6.0,Purple,117,0,252,252,252,m,0.238455057144,2016_Jul_27_1439,
nan,nan,117,0,253,253,253,m,0.150285005569,2016_Jul_27_1439,
5.0,Orange,117,0,254,254,254,m,0.326545000076,2016_Jul_27_1439,
nan,nan,117,0,255,255,255,z,0.382433891296,2016_Jul_27_1439,
7.0,DarkGray,117,0,256,256,256,m,0.230520963669,2016_Jul_27_1439,
3.0,Blue,117,0,257,257,257,m,0.286190032959,2016_Jul_27_1439,
1.0,Red,117,0,258,258,258,m,0.31015586853,2016_Jul_27_1439,
8.0,Green,117,0,259,259,259,m,0.302521944046,2016_Jul_27_1439,
6.0,Purple,117,0,260,260,260,m,0.310288906097,2016_Jul_27_1439,
9.0,Orange,117,0,261,261,261,m,0.390305042267,2016_Jul_27_1439,
2.0,DarkGray,117,0,262,262,262,,,2016_Jul_27_1439,
nan,nan,117,0,263,263,263,z,0.454491138458,2016_Jul_27_1439,
4.0,Blue,117,0,264,264,264,m,0.278394937515,2016_Jul_27_1439,
nan,nan,117,0,265,265,265,m,0.254171848297,2016_Jul_27_1439,
1.0,Red,117,0,266,266,266,m,0.286461830139,2016_Jul_27_1439,
8.0,Green,117,0,267,267,267,m,0.310180187225,2016_Jul_27_1439,
6.0,Yellow,117,0,268,268,268,m,0.310081958771,2016_Jul_27_1439,
5.0,LightPink,117,0,269,269,269,m,0.302177906036,2016_Jul_27_1439,
7.0,Brown,117,0,270,270,270,m,0.318320989609,2016_Jul_27_1439,
3.0,Purple,117,0,271,271,271,m,0.254297018051,2016_Jul_27_1439,
nan,nan,117,0,272,272,272,m,0.294322013855,2016_Jul_27_1439,
9.0,Orange,117,0,273,273,273,m,0.302181005478,2016_Jul_27_1439,
2.0,DarkGray,117,0,274,274,274,m,0.302188158035,2016_Jul_27_1439,
4.0,Yellow,117,0,275,275,275,m,0.326196908951,2016_Jul_27_1439,
5.0,LightPink,117,0,276,276,276,m,0.42201590538,2016_Jul_27_1439,
7.0,Brown,117,0,277,277,277,m,0.566287994385,2016_Jul_27_1439,
3.0,Purple,117,0,278,278,278,m,0.454083919525,2016_Jul_27_1439,
nan,nan,117,0,279,279,279,z,0.398257017136,2016_Jul_27_1439,
9.0,Orange,117,0,280,280,280,m,0.230114936829,2016_Jul_27_1439,
2.0,DarkGray,117,0,281,281,281,m,0.197990894318,2016_Jul_27_1439,
nan,nan,117,0,282,282,282,z,0.389927148819,2016_Jul_27_1439,
4.0,Yellow,117,0,283,283,283,m,0.214206933975,2016_Jul_27_1439,
1.0,LightPink,117,0,284,284,284,m,0.253937005997,2016_Jul_27_1439,
8.0,Brown,117,0,285,285,285,m,0.317942142487,2016_Jul_27_1439,
nan,nan,117,0,286,286,286,z,0.350100040436,2016_Jul_27_1439,
6.0,Blue,117,0,287,287,287,m,0.142285108566,2016_Jul_27_1439,
5.0,Red,117,0,288,288,288,m,0.213964939117,2016_Jul_27_1439,
7.0,Green,117,0,289,289,289,m,0.246029138565,2016_Jul_27_1439,
3.0,Yellow,117,0,290,290,290,m,0.302144050598,2016_Jul_27_1439,
9.0,LightPink,117,0,291,291,291,m,0.374037981033,2016_Jul_27_1439,
2.0,Brown,117,0,292,292,292,m,0.350040197372,2016_Jul_27_1439,
4.0,Purple,117,0,293,293,293,m,0.334003925323,2016_Jul_27_1439,
5.0,Orange,117,0,294,294,294,m,0.334087133408,2016_Jul_27_1439,
7.0,DarkGray,117,0,295,295,295,,,2016_Jul_27_1439,
3.0,Blue,117,0,296,296,296,m,0.349758863449,2016_Jul_27_1439,
1.0,Red,117,0,297,297,297,m,0.286160945892,2016_Jul_27_1439,
8.0,Green,117,0,298,298,298,m,0.269791126251,2016_Jul_27_1439,
6.0,Yellow,117,0,299,299,299,m,0.309843063354,2016_Jul_27_1439,
5.0,LightPink,117,0,300,300,300,m,0.349991083145,2016_Jul_27_1439,
7.0,Brown,117,0,301,301,301,m,0.309995889664,2016_Jul_27_1439,
nan,nan,117,0,302,302,302,z,0.325710058212,2016_Jul_27_1439,
3.0,Purple,117,0,303,303,303,m,0.0618159770966,2016_Jul_27_1439,
nan,nan,117,0,304,304,304,m,0.0858540534973,2016_Jul_27_1439,
1.0,Orange,117,0,305,305,305,m,0.261936187744,2016_Jul_27_1439,
8.0,DarkGray,117,0,306,306,306,m,0.277793884277,2016_Jul_27_1439,
6.0,Blue,117,0,307,307,307,m,0.342022895813,2016_Jul_27_1439,
nan,nan,117,0,308,308,308,z,0.453871011734,2016_Jul_27_1439,
5.0,Red,117,0,309,309,309,m,0.261645078659,2016_Jul_27_1439,
7.0,Green,117,0,310,310,310,m,0.261930942535,2016_Jul_27_1439,
3.0,Yellow,117,0,311,311,311,m,0.27784705162,2016_Jul_27_1439,
9.0,LightPink,117,0,312,312,312,m,0.317975997925,2016_Jul_27_1439,
2.0,Brown,117,0,313,313,313,m,0.445763111115,2016_Jul_27_1439,
4.0,Blue,117,0,314,314,314,m,0.421614170074,2016_Jul_27_1439,
5.0,Red,117,0,315,315,315,m,0.293778896332,2016_Jul_27_1439,
nan,nan,117,0,316,316,316,z,0.373785018921,2016_Jul_27_1439,
7.0,Green,117,0,317,317,317,m,0.189829826355,2016_Jul_27_1439,
3.0,Yellow,117,0,318,318,318,m,0.245882034302,2016_Jul_27_1439,
9.0,LightPink,117,0,319,319,319,m,0.245819091797,2016_Jul_27_1439,
2.0,Brown,117,0,320,320,320,m,0.253685951233,2016_Jul_27_1439,
4.0,Purple,117,0,321,321,321,m,0.277500152588,2016_Jul_27_1439,
1.0,Orange,117,0,322,322,322,m,0.333778858185,2016_Jul_27_1439,
8.0,DarkGray,117,0,323,323,323,m,0.333481788635,2016_Jul_27_1439,
6.0,Yellow,117,0,324,324,324,m,0.277568101883,2016_Jul_27_1439,
9.0,LightPink,117,0,325,325,325,m,0.237341880798,2016_Jul_27_1439,
nan,nan,117,0,326,326,326,z,0.429635047913,2016_Jul_27_1439,
2.0,Brown,117,0,327,327,327,m,0.0537710189819,2016_Jul_27_1439,
4.0,Blue,117,0,328,328,328,m,0.13339304924,2016_Jul_27_1439,
nan,nan,117,0,329,329,329,z,0.429584026337,2016_Jul_27_1439,
5.0,Red,117,0,330,330,330,m,0.429791212082,2016_Jul_27_1439,
7.0,Green,117,0,331,331,331,m,0.269498825073,2016_Jul_27_1439,
3.0,Purple,117,0,332,332,332,m,0.301726102829,2016_Jul_27_1439,
1.0,Orange,117,0,333,333,333,m,0.501703977585,2016_Jul_27_1439,
8.0,DarkGray,117,0,334,334,334,m,0.501353025436,2016_Jul_27_1439,
6.0,Blue,117,0,335,335,335,m,0.48561000824,2016_Jul_27_1439,
9.0,Red,117,0,336,336,336,m,0.581640958786,2016_Jul_27_1439,
2.0,Green,117,0,337,337,337,m,0.549705982208,2016_Jul_27_1439,
nan,nan,117,0,338,338,338,z,0.477591991425,2016_Jul_27_1439,
4.0,Purple,117,0,339,339,339,m,0.245625972748,2016_Jul_27_1439,
5.0,Orange,117,0,340,340,340,m,0.293550014496,2016_Jul_27_1439,
7.0,DarkGray,117,0,341,341,341,m,0.237417936325,2016_Jul_27_1439,
nan,nan,117,0,342,342,342,m,0.213506937027,2016_Jul_27_1439,
3.0,Yellow,117,0,343,343,343,m,0.0935080051422,2016_Jul_27_1439,
9.0,LightPink,117,0,344,344,344,m,0.269492864609,2016_Jul_27_1439,
2.0,Brown,117,0,345,345,345,m,0.253405094147,2016_Jul_27_1439,
4.0,Purple,117,0,346,346,346,m,0.301138877869,2016_Jul_27_1439,
1.0,Orange,117,0,347,347,347,m,0.325148820877,2016_Jul_27_1439,
8.0,DarkGray,117,0,348,348,348,m,0.277229070663,2016_Jul_27_1439,
nan,nan,117,0,349,349,349,z,0.41335105896,2016_Jul_27_1439,
6.0,Yellow,117,0,350,350,350,m,0.149612188339,2016_Jul_27_1439,
9.0,LightPink,117,0,351,351,351,m,0.237253904343,2016_Jul_27_1439,
2.0,Brown,117,0,352,352,352,m,0.245270967484,2016_Jul_27_1439,
4.0,Blue,117,0,353,353,353,m,0.261268138885,2016_Jul_27_1439,
5.0,Red,117,0,354,354,354,m,0.261552810669,2016_Jul_27_1439,
7.0,Green,117,0,355,355,355,m,0.309273004532,2016_Jul_27_1439,
3.0,Purple,117,0,356,356,356,m,0.261482000351,2016_Jul_27_1439,
9.0,Orange,117,0,357,357,357,m,0.29300904274,2016_Jul_27_1439,
2.0,DarkGray,117,0,358,358,358,m,0.261240005493,2016_Jul_27_1439,
4.0,Blue,117,0,359,359,359,m,0.229353904724,2016_Jul_27_1439,
1.0,Red,117,0,360,360,360,m,0.277153968811,2016_Jul_27_1439,
8.0,Green,117,0,361,361,361,m,0.28524684906,2016_Jul_27_1439,
6.0,Purple,117,0,362,362,362,m,0.349249124527,2016_Jul_27_1439,
9.0,Orange,117,0,363,363,363,m,0.357075929642,2016_Jul_27_1439,
2.0,DarkGray,117,0,364,364,364,m,0.397250890732,2016_Jul_27_1439,
nan,nan,117,0,365,365,365,z,0.33311009407,2016_Jul_27_1439,
4.0,Yellow,117,0,366,366,366,m,0.0532739162445,2016_Jul_27_1439,
5.0,LightPink,117,0,367,367,367,m,0.236862182617,2016_Jul_27_1439,
7.0,Brown,117,0,368,368,368,m,0.253305912018,2016_Jul_27_1439,
3.0,Purple,117,0,369,369,369,m,0.2693400383,2016_Jul_27_1439,
1.0,Orange,117,0,370,370,370,m,0.285128831863,2016_Jul_27_1439,
8.0,DarkGray,117,0,371,371,371,m,0.341246128082,2016_Jul_27_1439,
nan,nan,117,0,372,372,372,z,0.34940290451,2016_Jul_27_1439,
6.0,Yellow,117,0,373,373,373,m,0.0689558982849,2016_Jul_27_1439,
5.0,LightPink,117,0,374,374,374,m,0.188881874084,2016_Jul_27_1439,
nan,nan,117,0,375,375,375,m,0.237046003342,2016_Jul_27_1439,
7.0,Brown,117,0,376,376,376,m,0.213255882263,2016_Jul_27_1439,
3.0,Blue,117,0,377,377,377,m,0.253009080887,2016_Jul_27_1439,
nan,nan,117,0,378,378,378,z,0.42906498909,2016_Jul_27_1439,
9.0,Red,117,0,379,379,379,m,0.100905895233,2016_Jul_27_1439,
2.0,Green,117,0,380,380,380,m,0.140954017639,2016_Jul_27_1439,
nan,nan,117,0,381,381,381,m,0.269022941589,2016_Jul_27_1439,
4.0,Purple,117,0,382,382,382,m,0.0929410457611,2016_Jul_27_1439,
5.0,Orange,117,0,383,383,383,m,0.252934932709,2016_Jul_27_1439,
7.0,DarkGray,117,0,384,384,384,m,0.309070825577,2016_Jul_27_1439,
3.0,Yellow,117,0,385,385,385,m,0.284956932068,2016_Jul_27_1439,
1.0,LightPink,117,0,386,386,386,m,0.29300904274,2016_Jul_27_1439,
8.0,Brown,117,0,387,387,387,m,0.46090388298,2016_Jul_27_1439,
6.0,Purple,117,0,388,388,388,m,0.396816015244,2016_Jul_27_1439,
5.0,Orange,117,0,389,389,389,m,0.340747833252,2016_Jul_27_1439,
nan,nan,117,0,390,390,390,z,0.468922138214,2016_Jul_27_1439,
7.0,DarkGray,117,0,391,391,391,m,0.228976011276,2016_Jul_27_1439,
3.0,Blue,117,0,392,392,392,m,0.292871952057,2016_Jul_27_1439,
9.0,Red,117,0,393,393,393,m,0.332836866379,2016_Jul_27_1439,
2.0,Green,117,0,394,394,394,m,0.284893989563,2016_Jul_27_1439,
4.0,Yellow,117,0,395,395,395,m,0.30094909668,2016_Jul_27_1439,
5.0,LightPink,117,0,396,396,396,m,0.30082321167,2016_Jul_27_1439,
7.0,Brown,117,0,397,397,397,m,0.308817148209,2016_Jul_27_1439,
nan,nan,117,0,398,398,398,z,0.348693132401,2016_Jul_27_1439,
3.0,Purple,117,0,399,399,399,m,0.0448091030121,2016_Jul_27_1439,
1.0,Orange,117,0,400,400,400,m,0.244681119919,2016_Jul_27_1439,
8.0,DarkGray,117,0,401,401,401,m,0.22071480751,2016_Jul_27_1439,
6.0,Blue,117,0,402,402,402,m,0.300987005234,2016_Jul_27_1439,
9.0,Red,117,0,403,403,403,m,0.316508054733,2016_Jul_27_1439,
2.0,Green,117,0,404,404,404,m,0.324610948563,2016_Jul_27_1439,
4.0,Yellow,117,0,405,405,405,m,0.372718095779,2016_Jul_27_1439,
5.0,LightPink,117,0,406,406,406,m,0.332797050476,2016_Jul_27_1439,
7.0,Brown,117,0,407,407,407,m,0.420583963394,2016_Jul_27_1439,
3.0,Purple,117,0,408,408,408,m,0.420743942261,2016_Jul_27_1439,
1.0,Orange,117,0,409,409,409,m,0.38063621521,2016_Jul_27_1439,
8.0,DarkGray,117,0,410,410,410,m,0.428791999817,2016_Jul_27_1439,
6.0,Yellow,117,0,411,411,411,m,0.316640138626,2016_Jul_27_1439,
9.0,LightPink,117,0,412,412,412,m,0.276715993881,2016_Jul_27_1439,
2.0,Brown,117,0,413,413,413,m,0.252824068069,2016_Jul_27_1439,
4.0,Purple,117,0,414,414,414,m,0.308629989624,2016_Jul_27_1439,
1.0,Orange,117,0,415,415,415,m,0.292754173279,2016_Jul_27_1439,
8.0,DarkGray,117,0,416,416,416,m,0.324600934982,2016_Jul_27_1439,
6.0,Yellow,117,0,417,417,417,m,0.340488195419,2016_Jul_27_1439,
9.0,LightPink,117,0,418,418,418,m,0.308506011963,2016_Jul_27_1439,
2.0,Brown,117,0,419,419,419,m,0.300606012344,2016_Jul_27_1439,
4.0,Blue,117,0,420,420,420,m,0.268440961838,2016_Jul_27_1439,
1.0,Red,117,0,421,421,421,m,0.26066493988,2016_Jul_27_1439,
nan,nan,117,0,422,422,422,m,0.228311061859,2016_Jul_27_1439,
8.0,Green,117,0,423,423,423,m,0.236554861069,2016_Jul_27_1439,
6.0,Yellow,117,0,424,424,424,m,0.252531051636,2016_Jul_27_1439,
9.0,LightPink,117,0,425,425,425,m,0.292759895325,2016_Jul_27_1439,
2.0,Brown,117,0,426,426,426,m,0.31635594368,2016_Jul_27_1439,
4.0,Blue,117,0,427,427,427,m,0.348335981369,2016_Jul_27_1439,
1.0,Red,117,0,428,428,428,m,0.300498008728,2016_Jul_27_1439,
8.0,Green,117,0,429,429,429,m,0.252281188965,2016_Jul_27_1439,
nan,nan,117,0,430,430,430,m,0.252506971359,2016_Jul_27_1439,
6.0,Yellow,117,0,431,431,431,m,0.140496015549,2016_Jul_27_1439,
9.0,LightPink,117,0,432,432,432,m,0.196219921112,2016_Jul_27_1439,
2.0,Brown,117,0,433,433,433,m,0.1004550457,2016_Jul_27_1439,
4.0,Blue,117,0,434,434,434,m,0.244607925415,2016_Jul_27_1439,
5.0,Red,117,0,435,435,435,m,0.140508174896,2016_Jul_27_1439,
7.0,Green,117,0,436,436,436,m,0.276203155518,2016_Jul_27_1439,
3.0,Yellow,117,0,437,437,437,m,0.308078050613,2016_Jul_27_1439,
1.0,LightPink,117,0,438,438,438,m,0.340547084808,2016_Jul_27_1439,
8.0,Brown,117,0,439,439,439,m,0.452132940292,2016_Jul_27_1439,
6.0,Purple,117,0,440,440,440,m,0.412182807922,2016_Jul_27_1439,
5.0,Orange,117,0,441,441,441,m,0.348411083221,2016_Jul_27_1439,
7.0,DarkGray,117,0,442,442,442,m,0.372169971466,2016_Jul_27_1439,
3.0,Blue,117,0,443,443,443,m,0.276081800461,2016_Jul_27_1439,
1.0,Red,117,0,444,444,444,m,0.276153087616,2016_Jul_27_1439,
nan,nan,117,0,445,445,445,z,0.387983798981,2016_Jul_27_1439,
8.0,Green,117,0,446,446,446,m,0.0923750400543,2016_Jul_27_1439,
6.0,Yellow,117,0,447,447,447,m,0.244443893433,2016_Jul_27_1439,
nan,nan,117,0,448,448,448,m,0.21200799942,2016_Jul_27_1439,
9.0,LightPink,117,0,449,449,449,m,0.163903951645,2016_Jul_27_1439,
2.0,Brown,117,0,450,450,450,m,0.172255992889,2016_Jul_27_1439,
4.0,Blue,117,0,451,451,451,m,0.316300868988,2016_Jul_27_1439,
1.0,Red,117,0,452,452,452,m,0.292162179947,2016_Jul_27_1439,
8.0,Green,117,0,453,453,453,m,0.323984861374,2016_Jul_27_1439,
6.0,Purple,117,0,454,454,454,m,0.299962043762,2016_Jul_27_1439,
9.0,Orange,117,0,455,455,455,m,0.315896987915,2016_Jul_27_1439,
2.0,DarkGray,117,0,456,456,456,m,0.332095146179,2016_Jul_27_1439,
4.0,Yellow,117,0,457,457,457,m,0.300229072571,2016_Jul_27_1439,
1.0,LightPink,117,0,458,458,458,m,0.323968887329,2016_Jul_27_1439,
8.0,Brown,117,0,459,459,459,m,0.259888887405,2016_Jul_27_1439,
6.0,nan,117,0,460,460,460,m,0.564157962799,2016_Jul_27_1439,
nan,nan,117,0,461,461,461,,,2016_Jul_27_1439,
