comparison,stim1_dots2,stim2_color1,stim1_dots3,stim2_color3,stim1_dots1,stim2_dots1,stim2_color2,stim1_color1,stim1_color2,stim1_color3,participant,test,stim2_dots3,stim2_dots2,correct,.thisRepN,.thisTrialN,.thisN,.thisIndex,response,response_time,stim_response,date,Unnamed: 24
4,8,orange,3,blue,5,9,brown,orange,brown,blue,100,dots,4,2,Right,0,0,0,0,0,2.80731523188,Right,2016_Jul_11_1540,
10,9,purple,7,darkgrey,6,6,red,yellow,pink,brown,100,colours,7,9,Left,0,1,1,1,1,0.0376537841512,Left,2016_Jul_11_1540,
5,2,pink,4,yellow,1,5,green,pink,green,yellow,100,dots,3,7,Right,0,2,2,2,0,0.989292875805,Right,2016_Jul_11_1540,
1,8,pink,6,blue,1,9,green,pink,green,blue,100,dots,4,7,Left,0,3,3,3,1,2.92516906181,Left,2016_Jul_11_1540,
5,2,orange,4,yellow,1,5,darkgrey,orange,darkgrey,yellow,100,dots,3,7,Right,0,4,4,4,0,0.782725763158,Right,2016_Jul_11_1540,
3,7,red,3,blue,1,9,green,red,green,blue,100,dots,4,2,Right,0,5,5,5,1,1.43344096502,Left,2016_Jul_11_1540,
11,1,purple,7,darkgrey,4,4,orange,blue,pink,green,100,colours,7,1,Right,0,6,6,6,0,0.276635974995,Right,2016_Jul_11_1540,
6,7,red,3,yellow,5,9,brown,red,brown,yellow,100,dots,4,8,Left,0,7,7,7,1,0.354151919775,Left,2016_Jul_11_1540,
3,7,pink,3,blue,1,9,darkgrey,pink,darkgrey,blue,100,dots,4,2,Right,0,8,8,8,0,1.87328851584,Right,2016_Jul_11_1540,
4,2,pink,4,blue,9,5,brown,pink,brown,blue,100,dots,3,8,Left,0,9,9,9,0,0.1840308666,Right,2016_Jul_11_1540,
2,8,pink,6,yellow,1,5,darkgrey,pink,darkgrey,yellow,100,dots,3,2,Left,0,10,10,10,1,0.705334786675,Left,2016_Jul_11_1540,
8,1,purple,8,brown,6,6,pink,blue,red,green,100,colours,8,1,Left,0,11,11,11,0,0.187189182907,Right,2016_Jul_11_1540,
12,1,purple,2,darkgrey,3,3,orange,yellow,red,brown,100,colours,2,1,Right,0,12,12,12,0,0.0863059833064,Right,2016_Jul_11_1540,
12,5,yellow,8,brown,4,4,red,purple,orange,darkgrey,100,colours,8,5,Left,0,13,13,13,0,1.07055152964,Right,2016_Jul_11_1540,
8,5,blue,7,green,4,4,red,purple,pink,brown,100,colours,7,5,Right,0,14,14,14,1,1.40615350992,Left,2016_Jul_11_1540,
11,9,blue,2,green,6,6,pink,purple,orange,darkgrey,100,colours,2,9,Left,0,15,15,15,1,0.682426654326,Left,2016_Jul_11_1540,
7,5,blue,7,green,6,6,red,yellow,orange,darkgrey,100,colours,7,5,Right,0,16,16,16,1,1.28199421585,Left,2016_Jul_11_1540,
6,7,pink,3,yellow,5,9,brown,pink,brown,yellow,100,dots,4,8,Left,0,17,17,17,1,0.329589014407,Left,2016_Jul_11_1540,
1,8,red,6,yellow,1,9,brown,red,brown,yellow,100,dots,4,7,Left,0,18,18,18,1,1.73625356605,Left,2016_Jul_11_1540,
7,5,yellow,2,darkgrey,6,6,orange,blue,red,green,100,colours,2,5,Left,0,19,19,19,0,0.0906267460668,Right,2016_Jul_11_1540,
9,5,yellow,8,brown,3,3,pink,blue,orange,green,100,colours,8,5,Right,0,20,20,20,0,0.528547853639,Right,2016_Jul_11_1540,
9,5,yellow,2,brown,6,6,pink,blue,orange,green,100,colours,2,5,Right,0,21,21,21,1,0.583716212132,Left,2016_Jul_11_1540,
2,8,pink,6,yellow,1,5,green,pink,green,yellow,100,dots,3,2,Left,0,22,22,22,1,0.36529673473,Left,2016_Jul_11_1540,
10,5,yellow,7,brown,4,4,pink,purple,red,darkgrey,100,colours,7,5,Right,0,23,23,23,0,0.765630768263,Right,2016_Jul_11_1540,
13,6,brown,1,pink,8,1,yellow,yellow,pink,brown,100,dual,6,8,Left,0,24,24,24,0,2.6159224062,Right,2016_Jul_11_1540,
13,8,blue,6,green,1,8,red,green,red,blue,100,dual,1,6,Right,0,25,25,25,0,0.0971374720102,Right,2016_Jul_11_1540,
14,2,blue,4,green,9,2,red,green,red,blue,100,dual,9,4,Right,0,26,26,26,1,1.08179112733,Left,2016_Jul_11_1540,
14,6,darkgrey,1,orange,8,1,purple,purple,orange,darkgrey,100,dual,6,8,Left,0,27,27,27,0,0.1561910155,Right,2016_Jul_11_1540,
15,2,yellow,4,brown,9,2,pink,brown,yellow,pink,100,dual,9,4,Right,0,28,28,28,0,1.5108992554,Right,2016_Jul_11_1540,
15,2,purple,4,darkgrey,9,2,orange,darkgrey,purple,orange,100,dual,9,4,Right,0,29,29,29,1,0.00409829511773,Left,2016_Jul_11_1540,
16,3,green,5,blue,7,5,red,blue,red,green,100,dual,3,7,Left,0,30,30,30,0,3.89834223856,Right,2016_Jul_11_1540,
16,7,yellow,3,brown,5,7,pink,brown,yellow,pink,100,dual,5,3,Right,0,31,31,31,1,0.689580031147,Left,2016_Jul_11_1540,
17,3,darkgrey,5,orange,7,5,purple,purple,orange,darkgrey,100,dual,3,7,Left,0,32,32,32,1,0.0442508408451,Left,2016_Jul_11_1540,
4,2,orange,4,yellow,9,5,green,orange,green,yellow,101,dots,3,8,Left,0,0,0,0,1,0.0476162303239,Left,2016_Jul_11_1528,
7,5,blue,7,green,3,3,red,yellow,orange,darkgrey,101,colours,7,5,Right,0,1,1,1,0,0.0395548715023,Right,2016_Jul_11_1528,
3,2,pink,4,blue,9,1,brown,pink,brown,blue,101,dots,3,7,Left,0,2,2,2,1,0.65509029862,Left,2016_Jul_11_1528,
9,5,yellow,2,brown,4,4,pink,blue,orange,green,101,colours,2,5,Right,0,3,3,3,0,0.0228187830071,Right,2016_Jul_11_1528,
11,9,blue,7,green,3,3,pink,purple,orange,darkgrey,101,colours,7,9,Left,0,4,4,4,0,0.029877679015,Right,2016_Jul_11_1528,
7,9,yellow,2,darkgrey,3,3,orange,blue,red,green,101,colours,2,9,Left,0,5,5,5,1,0.164967470511,Left,2016_Jul_11_1528,
3,2,red,4,purple,9,1,darkgrey,red,darkgrey,purple,101,dots,3,7,Left,0,6,6,6,0,0.285720926535,Right,2016_Jul_11_1528,
5,7,orange,3,blue,5,1,green,orange,green,blue,101,dots,4,2,Left,0,7,7,7,1,0.173276351008,Left,2016_Jul_11_1528,
11,5,blue,7,green,6,6,pink,purple,orange,darkgrey,101,colours,7,5,Left,0,8,8,8,0,0.216042665474,Right,2016_Jul_11_1528,
8,5,blue,2,green,3,3,red,purple,pink,brown,101,colours,2,5,Right,0,9,9,9,0,0.851900528884,Right,2016_Jul_11_1528,
1,7,orange,4,purple,9,1,green,orange,green,purple,101,dots,6,8,Right,0,10,10,10,0,0.128324601159,Right,2016_Jul_11_1528,
5,7,pink,3,yellow,5,1,darkgrey,pink,darkgrey,yellow,101,dots,4,2,Left,0,11,11,11,0,0.21826130501,Right,2016_Jul_11_1528,
8,1,purple,8,brown,4,4,pink,blue,red,green,101,colours,8,1,Left,0,12,12,12,1,0.246626988694,Left,2016_Jul_11_1528,
4,8,red,3,blue,5,9,darkgrey,red,darkgrey,blue,101,dots,4,2,Right,0,13,13,13,1,0.307364585286,Left,2016_Jul_11_1528,
2,2,red,3,yellow,5,1,darkgrey,red,darkgrey,yellow,101,dots,6,8,Right,0,14,14,14,0,0.22573374334,Right,2016_Jul_11_1528,
10,1,yellow,2,brown,6,6,pink,purple,red,darkgrey,101,colours,2,1,Right,0,15,15,15,0,0.0940558270086,Right,2016_Jul_11_1528,
12,9,purple,7,darkgrey,3,3,orange,yellow,red,brown,101,colours,7,9,Right,0,16,16,16,1,0.102801190864,Left,2016_Jul_11_1528,
6,7,orange,3,blue,5,9,green,orange,green,blue,101,dots,4,8,Left,0,17,17,17,0,0.703534217319,Right,2016_Jul_11_1528,
9,1,yellow,8,brown,4,4,pink,blue,orange,green,101,colours,8,1,Right,0,18,18,18,1,1.01438493421,Left,2016_Jul_11_1528,
2,2,orange,3,yellow,5,1,brown,orange,brown,yellow,101,dots,6,8,Right,0,19,19,19,0,0.118010191247,Right,2016_Jul_11_1528,
1,8,pink,6,yellow,1,9,green,pink,green,yellow,101,dots,4,7,Left,0,20,20,20,0,0.0658235635492,Right,2016_Jul_11_1528,
12,1,yellow,7,brown,4,4,red,purple,orange,darkgrey,101,colours,7,1,Left,0,21,21,21,1,0.218174370588,Left,2016_Jul_11_1528,
6,8,orange,4,purple,9,5,brown,orange,brown,purple,101,dots,3,7,Right,0,22,22,22,0,0.054118806147,Right,2016_Jul_11_1528,
10,1,yellow,7,brown,3,3,pink,purple,red,darkgrey,101,colours,7,1,Right,0,23,23,23,1,0.173635559331,Left,2016_Jul_11_1528,
13,6,green,1,blue,8,1,red,blue,red,green,101,dual,6,8,Left,0,24,24,24,0,0.408369432786,Right,2016_Jul_11_1528,
13,6,brown,1,pink,8,1,yellow,yellow,pink,brown,101,dual,6,8,Left,0,25,25,25,1,0.215846459323,Left,2016_Jul_11_1528,
14,4,green,9,blue,2,9,red,blue,red,green,101,dual,4,2,Left,0,26,26,26,0,0.100640809513,Right,2016_Jul_11_1528,
14,8,purple,6,darkgrey,1,8,orange,darkgrey,purple,orange,101,dual,1,6,Right,0,27,27,27,0,0.491400583356,Right,2016_Jul_11_1528,
15,2,yellow,4,brown,9,2,pink,brown,yellow,pink,101,dual,9,4,Right,0,28,28,28,1,0.207784496772,Left,2016_Jul_11_1528,
15,2,purple,4,darkgrey,9,2,orange,darkgrey,purple,orange,101,dual,9,4,Right,0,29,29,29,0,0.0273327334435,Right,2016_Jul_11_1528,
16,7,yellow,3,brown,5,7,pink,brown,yellow,pink,101,dual,5,3,Right,0,30,30,30,0,0.146107223409,Right,2016_Jul_11_1528,
16,7,blue,3,green,5,7,red,green,red,blue,101,dual,5,3,Right,0,31,31,31,1,0.124030401697,Left,2016_Jul_11_1528,
17,7,purple,3,darkgrey,5,7,orange,darkgrey,purple,orange,101,dual,5,3,Right,0,32,32,32,0,0.485558165936,Right,2016_Jul_11_1528,
12,9,yellow,2,brown,6,6,red,purple,orange,darkgrey,102,colours,2,9,Left,0,0,0,0,1,0.155450865277,Left,2016_Jul_11_1558,
8,9,purple,2,brown,3,3,pink,blue,red,green,102,colours,2,9,Left,0,1,1,1,1,1.10971066827,Left,2016_Jul_11_1558,
9,5,blue,7,green,4,4,orange,yellow,pink,brown,102,colours,7,5,Left,0,2,2,2,0,0.439308134606,Right,2016_Jul_11_1558,
8,5,blue,8,green,4,4,red,purple,pink,brown,102,colours,8,5,Right,0,3,3,3,1,0.250018639606,Left,2016_Jul_11_1558,
2,8,orange,6,yellow,1,5,green,orange,green,yellow,102,dots,3,2,Left,0,4,4,4,0,0.454753488011,Right,2016_Jul_11_1558,
10,5,yellow,8,brown,6,6,pink,purple,red,darkgrey,102,colours,8,5,Right,0,5,5,5,1,0.425061752147,Left,2016_Jul_11_1558,
10,9,yellow,8,brown,3,3,pink,purple,red,darkgrey,102,colours,8,9,Right,0,6,6,6,1,0.266625835677,Left,2016_Jul_11_1558,
7,9,yellow,2,darkgrey,3,3,orange,blue,red,green,102,colours,2,9,Left,0,7,7,7,0,0.536229779827,Right,2016_Jul_11_1558,
1,7,red,4,yellow,9,1,brown,red,brown,yellow,102,dots,6,8,Right,0,8,8,8,0,0.140561530134,Right,2016_Jul_11_1558,
7,5,yellow,7,darkgrey,3,3,orange,blue,red,green,102,colours,7,5,Left,0,9,9,9,1,0.581092482258,Left,2016_Jul_11_1558,
3,7,red,3,yellow,1,9,darkgrey,red,darkgrey,yellow,102,dots,4,2,Right,0,10,10,10,0,0.0600650619599,Right,2016_Jul_11_1558,
9,1,yellow,7,brown,6,6,pink,blue,orange,green,102,colours,7,1,Right,0,11,11,11,0,2.547968345,Right,2016_Jul_11_1558,
12,5,purple,7,darkgrey,6,6,orange,yellow,red,brown,102,colours,7,5,Right,0,12,12,12,1,0.667569014069,Left,2016_Jul_11_1558,
3,7,orange,3,yellow,1,9,darkgrey,orange,darkgrey,yellow,102,dots,4,2,Right,0,13,13,13,1,0.611465808353,Left,2016_Jul_11_1558,
11,9,purple,7,darkgrey,6,6,orange,blue,pink,green,102,colours,7,9,Right,0,14,14,14,0,0.0874780890299,Right,2016_Jul_11_1558,
2,2,red,3,yellow,5,1,darkgrey,red,darkgrey,yellow,102,dots,6,8,Right,0,15,15,15,0,0.946094303974,Right,2016_Jul_11_1558,
4,2,pink,4,blue,9,5,darkgrey,pink,darkgrey,blue,102,dots,3,8,Left,0,16,16,16,1,1.13384705153,Left,2016_Jul_11_1558,
5,2,orange,4,blue,1,5,darkgrey,orange,darkgrey,blue,102,dots,3,7,Right,0,17,17,17,0,0.900046214112,Right,2016_Jul_11_1558,
1,7,orange,4,yellow,9,1,darkgrey,orange,darkgrey,yellow,102,dots,6,8,Right,0,18,18,18,0,0.961508868088,Right,2016_Jul_11_1558,
6,7,pink,3,blue,5,9,brown,pink,brown,blue,102,dots,4,8,Left,0,19,19,19,0,1.23274222942,Right,2016_Jul_11_1558,
6,7,orange,3,yellow,5,9,darkgrey,orange,darkgrey,yellow,102,dots,4,8,Left,0,20,20,20,0,0.775175747927,Right,2016_Jul_11_1558,
4,2,pink,4,yellow,9,5,green,pink,green,yellow,102,dots,3,8,Left,0,21,21,21,0,0.497425321664,Right,2016_Jul_11_1558,
11,5,purple,8,darkgrey,4,4,orange,blue,pink,green,102,colours,8,5,Right,0,22,22,22,0,0.0366000058712,Right,2016_Jul_11_1558,
5,2,pink,4,yellow,1,5,brown,pink,brown,yellow,102,dots,3,7,Right,0,23,23,23,1,0.380060497904,Left,2016_Jul_11_1558,
13,6,green,1,blue,8,1,red,blue,red,green,102,dual,6,8,Left,0,24,24,24,0,0.139238194679,Right,2016_Jul_11_1558,
13,8,yellow,6,brown,1,8,pink,brown,yellow,pink,102,dual,1,6,Right,0,25,25,25,1,0.182502571086,Left,2016_Jul_11_1558,
14,6,darkgrey,1,orange,8,1,purple,purple,orange,darkgrey,102,dual,6,8,Left,0,26,26,26,0,0.72164405114,Right,2016_Jul_11_1558,
14,2,blue,4,green,9,2,red,green,red,blue,102,dual,9,4,Right,0,27,27,27,0,0.551670001645,Right,2016_Jul_11_1558,
15,2,purple,4,darkgrey,9,2,orange,darkgrey,purple,orange,102,dual,9,4,Right,0,28,28,28,1,0.447048318922,Left,2016_Jul_11_1558,
15,4,brown,9,pink,2,9,yellow,yellow,pink,brown,102,dual,4,2,Left,0,29,29,29,0,0.158508965571,Right,2016_Jul_11_1558,
16,3,green,5,blue,7,5,red,blue,red,green,102,dual,3,7,Left,0,30,30,30,0,0.0433887409745,Right,2016_Jul_11_1558,
16,7,yellow,3,brown,5,7,pink,brown,yellow,pink,102,dual,5,3,Right,0,31,31,31,1,1.3148524182,Left,2016_Jul_11_1558,
17,7,purple,3,darkgrey,5,7,orange,darkgrey,purple,orange,102,dual,5,3,Right,0,32,32,32,0,0.442901726987,Right,2016_Jul_11_1558,
10,5,purple,2,darkgrey,3,3,red,yellow,pink,brown,110,colours,2,5,Left,0,0,0,0,0,1.18055105209,Right,2016_Aug_16_1429,
9,5,blue,7,green,4,4,orange,yellow,pink,brown,110,colours,7,5,Left,0,1,1,1,0,0.460715055466,Right,2016_Aug_16_1429,
6,8,red,4,yellow,9,5,darkgrey,red,darkgrey,yellow,110,dots,3,7,Right,0,2,2,2,1,0.594407081604,Left,2016_Aug_16_1429,
2,2,red,3,blue,5,1,brown,red,brown,blue,110,dots,6,8,Right,0,3,3,3,0,0.482378959656,Right,2016_Aug_16_1429,
6,8,pink,4,blue,9,5,green,pink,green,blue,110,dots,3,7,Right,0,4,4,4,1,0.407080888748,Left,2016_Aug_16_1429,
11,5,blue,2,green,6,6,pink,purple,orange,darkgrey,110,colours,2,5,Left,0,5,5,5,0,0.542947053909,Right,2016_Aug_16_1429,
7,5,yellow,2,darkgrey,4,4,orange,blue,red,green,110,colours,2,5,Left,0,6,6,6,0,0.417239904404,Right,2016_Aug_16_1429,
4,2,red,4,yellow,9,5,green,red,green,yellow,110,dots,3,8,Left,0,7,7,7,0,0.527807950974,Right,2016_Aug_16_1429,
1,8,red,6,purple,1,9,brown,red,brown,purple,110,dots,4,7,Left,0,8,8,8,0,0.323256015778,Right,2016_Aug_16_1429,
8,9,blue,8,green,3,3,red,purple,pink,brown,110,colours,8,9,Right,0,9,9,9,0,0.462604999542,Right,2016_Aug_16_1429,
9,1,yellow,8,brown,3,3,pink,blue,orange,green,110,colours,8,1,Right,0,10,10,10,1,0.396311044693,Left,2016_Aug_16_1429,
12,1,purple,8,darkgrey,4,4,orange,yellow,red,brown,110,colours,8,1,Right,0,11,11,11,0,0.204447031021,Right,2016_Aug_16_1429,
8,9,blue,2,green,4,4,red,purple,pink,brown,110,colours,2,9,Right,0,12,12,12,0,0.180932998657,Right,2016_Aug_16_1429,
3,7,pink,3,purple,1,9,brown,pink,brown,purple,110,dots,4,2,Right,0,13,13,13,1,0.30158996582,Left,2016_Aug_16_1429,
5,2,pink,4,purple,1,5,darkgrey,pink,darkgrey,purple,110,dots,3,7,Right,0,14,14,14,1,0.265044927597,Left,2016_Aug_16_1429,
5,7,pink,3,purple,5,1,brown,pink,brown,purple,110,dots,4,2,Left,0,15,15,15,1,0.126804828644,Left,2016_Aug_16_1429,
3,2,orange,4,purple,9,1,green,orange,green,purple,110,dots,3,7,Left,0,16,16,16,0,0.393841028214,Right,2016_Aug_16_1429,
10,5,yellow,7,brown,3,3,pink,purple,red,darkgrey,110,colours,7,5,Right,0,17,17,17,1,0.21835899353,Left,2016_Aug_16_1429,
2,2,orange,3,purple,5,1,darkgrey,orange,darkgrey,purple,110,dots,6,8,Right,0,18,18,18,1,0.369494199753,Left,2016_Aug_16_1429,
4,8,pink,3,yellow,5,9,brown,pink,brown,yellow,110,dots,4,2,Right,0,19,19,19,0,0.38643693924,Right,2016_Aug_16_1429,
7,5,yellow,8,darkgrey,6,6,orange,blue,red,green,110,colours,8,5,Left,0,20,20,20,1,0.427040100098,Left,2016_Aug_16_1429,
12,5,yellow,8,brown,4,4,red,purple,orange,darkgrey,110,colours,8,5,Left,0,21,21,21,1,0.338293075562,Left,2016_Aug_16_1429,
11,9,blue,2,green,3,3,pink,purple,orange,darkgrey,110,colours,2,9,Left,0,22,22,22,0,0.188760042191,Right,2016_Aug_16_1429,
1,8,pink,6,purple,1,9,green,pink,green,purple,110,dots,4,7,Left,0,23,23,23,1,0.397573947906,Left,2016_Aug_16_1429,
13,6,green,1,blue,8,1,red,blue,red,green,110,dual,6,8,Left,0,24,24,24,1,0.38157582283,Left,2016_Aug_16_1429,
13,6,brown,1,pink,8,1,yellow,yellow,pink,brown,110,dual,6,8,Left,0,25,25,25,0,0.381874084473,Right,2016_Aug_16_1429,
14,8,purple,6,darkgrey,1,8,orange,darkgrey,purple,orange,110,dual,1,6,Right,0,26,26,26,1,0.478485107422,Left,2016_Aug_16_1429,
14,4,green,9,blue,2,9,red,blue,red,green,110,dual,4,2,Left,0,27,27,27,1,0.451123952866,Left,2016_Aug_16_1429,
15,4,brown,9,pink,2,9,yellow,yellow,pink,brown,110,dual,4,2,Left,0,28,28,28,1,0.336789131165,Left,2016_Aug_16_1429,
15,2,purple,4,darkgrey,9,2,orange,darkgrey,purple,orange,110,dual,9,4,Right,0,29,29,29,0,0.331901073456,Right,2016_Aug_16_1429,
16,7,yellow,3,brown,5,7,pink,brown,yellow,pink,110,dual,5,3,Right,0,30,30,30,1,0.374400854111,Left,2016_Aug_16_1429,
16,7,blue,3,green,5,7,red,green,red,blue,110,dual,5,3,Right,0,31,31,31,0,0.407603979111,Right,2016_Aug_16_1429,
17,7,purple,3,darkgrey,5,7,orange,darkgrey,purple,orange,110,dual,5,3,Right,0,32,32,32,1,0.463274002075,Left,2016_Aug_16_1429,
7,5,yellow,8,darkgrey,3,3,orange,blue,red,green,111,colours,8,5,Left,0,0,0,0,1,0.284904956818,Left,2016_Jul_08_1050,
3,7,red,3,yellow,1,9,green,red,green,yellow,111,dots,4,2,Right,0,1,1,1,1,1.69704604149,Left,2016_Jul_08_1050,
3,2,red,4,purple,9,1,brown,red,brown,purple,111,dots,3,7,Left,0,2,2,2,0,0.132618904114,Right,2016_Jul_08_1050,
12,5,yellow,8,brown,6,6,red,purple,orange,darkgrey,111,colours,8,5,Left,0,3,3,3,1,0.271363973618,Left,2016_Jul_08_1050,
2,2,orange,3,yellow,5,1,green,orange,green,yellow,111,dots,6,8,Right,0,4,4,4,0,0.772428035736,Right,2016_Jul_08_1050,
9,1,yellow,8,brown,4,4,pink,blue,orange,green,111,colours,8,1,Right,0,5,5,5,1,0.0052490234375,Left,2016_Jul_08_1050,
11,5,blue,8,green,3,3,pink,purple,orange,darkgrey,111,colours,8,5,Left,0,6,6,6,0,0.0292890071869,Right,2016_Jul_08_1050,
1,7,pink,4,blue,9,1,green,pink,green,blue,111,dots,6,8,Right,0,7,7,7,1,0.0921518802643,Left,2016_Jul_08_1050,
9,9,yellow,8,brown,3,3,pink,blue,orange,green,111,colours,8,9,Right,0,8,8,8,1,0.289285182953,Left,2016_Jul_08_1050,
10,9,purple,2,darkgrey,6,6,red,yellow,pink,brown,111,colours,2,9,Left,0,9,9,9,0,0.164958953857,Right,2016_Jul_08_1050,
6,8,orange,4,yellow,9,5,green,orange,green,yellow,111,dots,3,7,Right,0,10,10,10,0,0.0947318077087,Right,2016_Jul_08_1050,
6,7,orange,3,yellow,5,9,darkgrey,orange,darkgrey,yellow,111,dots,4,8,Left,0,11,11,11,0,0.0679030418396,Right,2016_Jul_08_1050,
8,9,blue,8,green,6,6,red,purple,pink,brown,111,colours,8,9,Right,0,12,12,12,0,0.608015060425,Right,2016_Jul_08_1050,
12,5,yellow,2,brown,3,3,red,purple,orange,darkgrey,111,colours,2,5,Left,0,13,13,13,0,0.272598981857,Right,2016_Jul_08_1050,
4,8,orange,3,blue,5,9,green,orange,green,blue,111,dots,4,2,Right,0,14,14,14,1,0.118383169174,Left,2016_Jul_08_1050,
4,2,orange,4,yellow,9,5,darkgrey,orange,darkgrey,yellow,111,dots,3,8,Left,0,15,15,15,0,0.105749130249,Right,2016_Jul_08_1050,
11,1,purple,2,darkgrey,3,3,orange,blue,pink,green,111,colours,2,1,Right,0,16,16,16,0,0.118209838867,Right,2016_Jul_08_1050,
10,1,yellow,2,brown,6,6,pink,purple,red,darkgrey,111,colours,2,1,Right,0,17,17,17,0,0.273047924042,Right,2016_Jul_08_1050,
5,7,orange,3,purple,5,1,green,orange,green,purple,111,dots,4,2,Left,0,18,18,18,1,0.0848870277405,Left,2016_Jul_08_1050,
5,2,red,4,yellow,1,5,green,red,green,yellow,111,dots,3,7,Right,0,19,19,19,1,0.211017131805,Left,2016_Jul_08_1050,
7,1,yellow,7,darkgrey,3,3,orange,blue,red,green,111,colours,7,1,Left,0,20,20,20,1,0.235440969467,Left,2016_Jul_08_1050,
2,8,pink,6,purple,1,5,brown,pink,brown,purple,111,dots,3,2,Left,0,21,21,21,0,0.0496900081635,Right,2016_Jul_08_1050,
1,7,pink,4,yellow,9,1,green,pink,green,yellow,111,dots,6,8,Right,0,22,22,22,1,0.264252901077,Left,2016_Jul_08_1050,
8,1,purple,8,brown,4,4,pink,blue,red,green,111,colours,8,1,Left,0,23,23,23,1,0.269322156906,Left,2016_Jul_08_1050,
13,8,blue,6,green,1,8,red,green,red,blue,111,dual,1,6,Right,0,24,24,24,0,0.0747919082642,Right,2016_Jul_08_1050,
13,6,brown,1,pink,8,1,yellow,yellow,pink,brown,111,dual,6,8,Left,0,25,25,25,1,0.256286144257,Left,2016_Jul_08_1050,
14,8,purple,6,darkgrey,1,8,orange,darkgrey,purple,orange,111,dual,1,6,Right,0,26,26,26,0,0.205986022949,Right,2016_Jul_08_1050,
14,2,blue,4,green,9,2,red,green,red,blue,111,dual,9,4,Right,0,27,27,27,0,0.582020998001,Right,2016_Jul_08_1050,
15,4,brown,9,pink,2,9,yellow,yellow,pink,brown,111,dual,4,2,Left,0,28,28,28,0,0.446544885635,Right,2016_Jul_08_1050,
15,2,purple,4,darkgrey,9,2,orange,darkgrey,purple,orange,111,dual,9,4,Right,0,29,29,29,0,0.140691995621,Right,2016_Jul_08_1050,
16,3,green,5,blue,7,5,red,blue,red,green,111,dual,3,7,Left,0,30,30,30,0,0.0792019367218,Right,2016_Jul_08_1050,
16,3,brown,5,pink,7,5,yellow,yellow,pink,brown,111,dual,3,7,Left,0,31,31,31,0,0.508646011353,Right,2016_Jul_08_1050,
17,7,purple,3,darkgrey,5,7,orange,darkgrey,purple,orange,111,dual,5,3,Right,0,32,32,32,0,0.264765977859,Right,2016_Jul_08_1050,
10,9,yellow,7,brown,6,6,pink,purple,red,darkgrey,112,colours,7,9,Right,0,0,0,0,1,2.54167103767,Left,2016_Jul_15_1138,
8,1,blue,7,green,3,3,red,purple,pink,brown,112,colours,7,1,Right,0,1,1,1,0,2.71769785881,Right,2016_Jul_15_1138,
3,7,orange,3,yellow,1,9,green,orange,green,yellow,112,dots,4,2,Right,0,2,2,2,0,1.83846306801,Right,2016_Jul_15_1138,
8,9,blue,2,green,3,3,red,purple,pink,brown,112,colours,2,9,Right,0,3,3,3,1,1.29112291336,Left,2016_Jul_15_1138,
7,9,yellow,7,darkgrey,4,4,orange,blue,red,green,112,colours,7,9,Left,0,4,4,4,0,0.830946922302,Right,2016_Jul_15_1138,
3,7,orange,3,blue,1,9,darkgrey,orange,darkgrey,blue,112,dots,4,2,Right,0,5,5,5,0,0.940846920013,Right,2016_Jul_15_1138,
4,8,red,3,purple,5,9,darkgrey,red,darkgrey,purple,112,dots,4,2,Right,0,6,6,6,0,1.4385509491,Right,2016_Jul_15_1138,
12,5,yellow,2,brown,3,3,red,purple,orange,darkgrey,112,colours,2,5,Left,0,7,7,7,1,0.859977006912,Left,2016_Jul_15_1138,
12,1,yellow,2,brown,6,6,red,purple,orange,darkgrey,112,colours,2,1,Left,0,8,8,8,1,0.448860883713,Left,2016_Jul_15_1138,
9,9,blue,8,green,6,6,orange,yellow,pink,brown,112,colours,8,9,Left,0,9,9,9,0,2.07886886597,Right,2016_Jul_15_1138,
11,1,blue,7,green,6,6,pink,purple,orange,darkgrey,112,colours,7,1,Left,0,10,10,10,1,0.418303012848,Left,2016_Jul_15_1138,
9,5,yellow,7,brown,6,6,pink,blue,orange,green,112,colours,7,5,Right,0,11,11,11,0,0.160922050476,Right,2016_Jul_15_1138,
4,2,red,4,blue,9,5,green,red,green,blue,112,dots,3,8,Left,0,12,12,12,1,0.155511856079,Left,2016_Jul_15_1138,
1,7,red,4,purple,9,1,green,red,green,purple,112,dots,6,8,Right,0,13,13,13,1,0.381126880646,Left,2016_Jul_15_1138,
5,7,pink,3,blue,5,1,darkgrey,pink,darkgrey,blue,112,dots,4,2,Left,0,14,14,14,1,0.517940044403,Left,2016_Jul_15_1138,
6,7,pink,3,purple,5,9,brown,pink,brown,purple,112,dots,4,8,Left,0,15,15,15,1,0.672435045242,Left,2016_Jul_15_1138,
11,1,purple,2,darkgrey,6,6,orange,blue,pink,green,112,colours,2,1,Right,0,16,16,16,0,0.341685056686,Right,2016_Jul_15_1138,
7,9,yellow,8,darkgrey,6,6,orange,blue,red,green,112,colours,8,9,Left,0,17,17,17,1,0.83166217804,Left,2016_Jul_15_1138,
1,7,pink,4,blue,9,1,green,pink,green,blue,112,dots,6,8,Right,0,18,18,18,0,0.710337162018,Right,2016_Jul_15_1138,
10,1,yellow,8,brown,6,6,pink,purple,red,darkgrey,112,colours,8,1,Right,0,19,19,19,0,1.18572711945,Right,2016_Jul_15_1138,
2,8,orange,6,purple,1,5,green,orange,green,purple,112,dots,3,2,Left,0,20,20,20,1,0.136970996857,Left,2016_Jul_15_1138,
5,7,red,3,blue,5,1,green,red,green,blue,112,dots,4,2,Left,0,21,21,21,1,1.54010105133,Left,2016_Jul_15_1138,
2,2,red,3,yellow,5,1,brown,red,brown,yellow,112,dots,6,8,Right,0,22,22,22,0,0.965265035629,Right,2016_Jul_15_1138,
6,7,pink,3,yellow,5,9,brown,pink,brown,yellow,112,dots,4,8,Left,0,23,23,23,1,0.197610139847,Left,2016_Jul_15_1138,
13,6,brown,1,pink,8,1,yellow,yellow,pink,brown,112,dual,6,8,Left,0,24,24,24,0,0.469746828079,Right,2016_Jul_15_1138,
13,6,green,1,blue,8,1,red,blue,red,green,112,dual,6,8,Left,0,25,25,25,1,3.53865885735,Left,2016_Jul_15_1138,
14,2,blue,4,green,9,2,red,green,red,blue,112,dual,9,4,Right,0,26,26,26,0,1.56970596313,Right,2016_Jul_15_1138,
14,6,darkgrey,1,orange,8,1,purple,purple,orange,darkgrey,112,dual,6,8,Left,0,27,27,27,1,1.31335997581,Left,2016_Jul_15_1138,
15,2,purple,4,darkgrey,9,2,orange,darkgrey,purple,orange,112,dual,9,4,Right,0,28,28,28,1,2.62036395073,Left,2016_Jul_15_1138,
15,4,brown,9,pink,2,9,yellow,yellow,pink,brown,112,dual,4,2,Left,0,29,29,29,0,0.0408511161804,Right,2016_Jul_15_1138,
16,3,brown,5,pink,7,5,yellow,yellow,pink,brown,112,dual,3,7,Left,0,30,30,30,0,1.38396596909,Right,2016_Jul_15_1138,
16,3,green,5,blue,7,5,red,blue,red,green,112,dual,3,7,Left,0,31,31,31,1,0.838202953339,Left,2016_Jul_15_1138,
17,3,darkgrey,5,orange,7,5,purple,purple,orange,darkgrey,112,dual,3,7,Left,0,32,32,32,1,0.196771144867,Left,2016_Jul_15_1138,
2,8,red,6,purple,1,5,brown,red,brown,purple,113,dots,3,2,Left,0,0,0,0,1,0.384667873383,Left,2016_Jul_15_1448,
3,7,orange,3,purple,1,9,brown,orange,brown,purple,113,dots,4,2,Right,0,1,1,1,0,0.729024887085,Right,2016_Jul_15_1448,
8,5,purple,8,brown,6,6,pink,blue,red,green,113,colours,8,5,Left,0,2,2,2,1,1.38762307167,Left,2016_Jul_15_1448,
5,7,orange,3,purple,5,1,brown,orange,brown,purple,113,dots,4,2,Left,0,3,3,3,1,1.01051688194,Left,2016_Jul_15_1448,
9,9,blue,8,green,6,6,orange,yellow,pink,brown,113,colours,8,9,Left,0,4,4,4,0,0.650316953659,Right,2016_Jul_15_1448,
11,1,blue,8,green,6,6,pink,purple,orange,darkgrey,113,colours,8,1,Left,0,5,5,5,1,1.27947187424,Left,2016_Jul_15_1448,
3,2,red,4,blue,9,1,brown,red,brown,blue,113,dots,3,7,Left,0,6,6,6,1,4.94760084152,Left,2016_Jul_15_1448,
12,5,purple,8,darkgrey,6,6,orange,yellow,red,brown,113,colours,8,5,Right,0,7,7,7,1,0.817332029343,Left,2016_Jul_15_1448,
7,1,yellow,2,darkgrey,6,6,orange,blue,red,green,113,colours,2,1,Left,0,8,8,8,1,1.1918888092,Left,2016_Jul_15_1448,
1,7,orange,4,yellow,9,1,brown,orange,brown,yellow,113,dots,6,8,Right,0,9,9,9,0,0.0474269390106,Right,2016_Jul_15_1448,
2,2,red,3,blue,5,1,green,red,green,blue,113,dots,6,8,Right,0,10,10,10,1,0.805594921112,Left,2016_Jul_15_1448,
10,1,yellow,7,brown,6,6,pink,purple,red,darkgrey,113,colours,7,1,Right,0,11,11,11,0,1.84501218796,Right,2016_Jul_15_1448,
9,5,blue,7,green,4,4,orange,yellow,pink,brown,113,colours,7,5,Left,0,12,12,12,1,0.777527093887,Left,2016_Jul_15_1448,
6,8,pink,4,blue,9,5,darkgrey,pink,darkgrey,blue,113,dots,3,7,Right,0,13,13,13,1,0.410752058029,Left,2016_Jul_15_1448,
10,1,yellow,8,brown,3,3,pink,purple,red,darkgrey,113,colours,8,1,Right,0,14,14,14,0,1.01037216187,Right,2016_Jul_15_1448,
4,2,red,4,yellow,9,5,brown,red,brown,yellow,113,dots,3,8,Left,0,15,15,15,1,1.37724494934,Left,2016_Jul_15_1448,
1,7,red,4,yellow,9,1,green,red,green,yellow,113,dots,6,8,Right,0,16,16,16,0,0.232941150665,Right,2016_Jul_15_1448,
5,2,orange,4,yellow,1,5,brown,orange,brown,yellow,113,dots,3,7,Right,0,17,17,17,1,0.439660072327,Left,2016_Jul_15_1448,
6,8,pink,4,purple,9,5,brown,pink,brown,purple,113,dots,3,7,Right,0,18,18,18,1,0.430483102798,Left,2016_Jul_15_1448,
4,2,red,4,yellow,9,5,green,red,green,yellow,113,dots,3,8,Left,0,19,19,19,1,1.32492399216,Left,2016_Jul_15_1448,
11,1,purple,8,darkgrey,4,4,orange,blue,pink,green,113,colours,8,1,Right,0,20,20,20,1,0.862574100494,Left,2016_Jul_15_1448,
7,1,blue,2,green,4,4,red,yellow,orange,darkgrey,113,colours,2,1,Right,0,21,21,21,0,0.252424955368,Right,2016_Jul_15_1448,
12,9,purple,7,darkgrey,6,6,orange,yellow,red,brown,113,colours,7,9,Right,0,22,22,22,1,0.410054922104,Left,2016_Jul_15_1448,
8,5,blue,7,green,6,6,red,purple,pink,brown,113,colours,7,5,Right,0,23,23,23,0,0.762220859528,Right,2016_Jul_15_1448,
13,6,brown,1,pink,8,1,yellow,yellow,pink,brown,113,dual,6,8,Left,0,24,24,24,0,0.827386856079,Right,2016_Jul_15_1448,
13,8,blue,6,green,1,8,red,green,red,blue,113,dual,1,6,Right,0,25,25,25,1,1.29784011841,Left,2016_Jul_15_1448,
8,5,blue,8,green,3,3,red,purple,pink,brown,114,colours,8,5,Right,0,0,0,0,1,2.24139499664,Left,2016_Jul_15_1542,
8,1,blue,8,green,4,4,red,purple,pink,brown,114,colours,8,1,Right,0,1,1,1,1,0.630098819733,Left,2016_Jul_15_1542,
2,2,red,3,yellow,5,1,darkgrey,red,darkgrey,yellow,114,dots,6,8,Right,0,2,2,2,0,0.348834991455,Right,2016_Jul_15_1542,
5,2,red,4,yellow,1,5,brown,red,brown,yellow,114,dots,3,7,Right,0,3,3,3,0,0.102901220322,Right,2016_Jul_15_1542,
9,1,yellow,2,brown,4,4,pink,blue,orange,green,114,colours,2,1,Right,0,4,4,4,0,0.386461019516,Right,2016_Jul_15_1542,
11,1,purple,7,darkgrey,6,6,orange,blue,pink,green,114,colours,7,1,Right,0,5,5,5,0,0.067752122879,Right,2016_Jul_15_1542,
10,5,yellow,8,brown,3,3,pink,purple,red,darkgrey,114,colours,8,5,Right,0,6,6,6,0,0.312438964844,Right,2016_Jul_15_1542,
6,7,red,3,blue,5,9,darkgrey,red,darkgrey,blue,114,dots,4,8,Left,0,7,7,7,1,0.204825162888,Left,2016_Jul_15_1542,
5,2,pink,4,blue,1,5,brown,pink,brown,blue,114,dots,3,7,Right,0,8,8,8,0,0.308744907379,Right,2016_Jul_15_1542,
1,7,orange,4,yellow,9,1,green,orange,green,yellow,114,dots,6,8,Right,0,9,9,9,0,0.160315990448,Right,2016_Jul_15_1542,
9,5,yellow,8,brown,6,6,pink,blue,orange,green,114,colours,8,5,Right,0,10,10,10,0,0.242681026459,Right,2016_Jul_15_1542,
2,8,red,6,purple,1,5,green,red,green,purple,114,dots,3,2,Left,0,11,11,11,1,0.257347822189,Left,2016_Jul_15_1542,
4,8,orange,3,blue,5,9,darkgrey,orange,darkgrey,blue,114,dots,4,2,Right,0,12,12,12,0,0.263523817062,Right,2016_Jul_15_1542,
10,9,yellow,2,brown,4,4,pink,purple,red,darkgrey,114,colours,2,9,Right,0,13,13,13,1,0.284117937088,Left,2016_Jul_15_1542,
1,7,red,4,yellow,9,1,darkgrey,red,darkgrey,yellow,114,dots,6,8,Right,0,14,14,14,0,0.145099878311,Right,2016_Jul_15_1542,
3,2,red,4,yellow,9,1,darkgrey,red,darkgrey,yellow,114,dots,3,7,Left,0,15,15,15,0,0.267858982086,Right,2016_Jul_15_1542,
4,8,pink,3,blue,5,9,darkgrey,pink,darkgrey,blue,114,dots,4,2,Right,0,16,16,16,0,0.297163009644,Right,2016_Jul_15_1542,
11,5,purple,7,darkgrey,6,6,orange,blue,pink,green,114,colours,7,5,Right,0,17,17,17,1,0.245064020157,Left,2016_Jul_15_1542,
6,7,pink,3,blue,5,9,brown,pink,brown,blue,114,dots,4,8,Left,0,18,18,18,1,0.307629108429,Left,2016_Jul_15_1542,
7,9,blue,7,green,6,6,red,yellow,orange,darkgrey,114,colours,7,9,Right,0,19,19,19,0,0.423769950867,Right,2016_Jul_15_1542,
7,5,blue,2,green,3,3,red,yellow,orange,darkgrey,114,colours,2,5,Right,0,20,20,20,0,0.286561965942,Right,2016_Jul_15_1542,
12,5,purple,2,darkgrey,4,4,orange,yellow,red,brown,114,colours,2,5,Right,0,21,21,21,0,0.234863042831,Right,2016_Jul_15_1542,
12,5,yellow,2,brown,6,6,red,purple,orange,darkgrey,114,colours,2,5,Left,0,22,22,22,1,0.338057994843,Left,2016_Jul_15_1542,
3,2,orange,4,purple,9,1,darkgrey,orange,darkgrey,purple,114,dots,3,7,Left,0,23,23,23,0,0.228235006332,Right,2016_Jul_15_1542,
13,6,brown,1,pink,8,1,yellow,yellow,pink,brown,114,dual,6,8,Left,0,24,24,24,0,0.195955038071,Right,2016_Jul_15_1542,
13,6,green,1,blue,8,1,red,blue,red,green,114,dual,6,8,Left,0,25,25,25,1,0.412154912949,Left,2016_Jul_15_1542,
14,6,darkgrey,1,orange,8,1,purple,purple,orange,darkgrey,114,dual,6,8,Left,0,26,26,26,0,0.188187122345,Right,2016_Jul_15_1542,
14,2,blue,4,green,9,2,red,green,red,blue,114,dual,9,4,Right,0,27,27,27,0,0.492439985275,Right,2016_Jul_15_1542,
15,4,darkgrey,9,orange,2,9,purple,purple,orange,darkgrey,114,dual,4,2,Left,0,28,28,28,1,0.217396020889,Left,2016_Jul_15_1542,
15,4,brown,9,pink,2,9,yellow,yellow,pink,brown,114,dual,4,2,Left,0,29,29,29,0,0.248794078827,Right,2016_Jul_15_1542,
16,3,green,5,blue,7,5,red,blue,red,green,114,dual,3,7,Left,0,30,30,30,1,0.342628002167,Left,2016_Jul_15_1542,
16,7,yellow,3,brown,5,7,pink,brown,yellow,pink,114,dual,5,3,Right,0,31,31,31,1,0.360326051712,Left,2016_Jul_15_1542,
17,7,purple,3,darkgrey,5,7,orange,darkgrey,purple,orange,114,dual,5,3,Right,0,32,32,32,0,0.0507521629333,Right,2016_Jul_15_1542,
9,9,blue,2,green,6,6,orange,yellow,pink,brown,115,colours,2,9,Left,0,0,0,0,1,0.438864946365,Left,2016_Jul_21_1239,
10,9,purple,2,darkgrey,4,4,red,yellow,pink,brown,115,colours,2,9,Left,0,1,1,1,1,0.0693671703339,Left,2016_Jul_21_1239,
4,2,orange,4,purple,9,5,darkgrey,orange,darkgrey,purple,115,dots,3,8,Left,0,2,2,2,1,0.058944940567,Left,2016_Jul_21_1239,
7,9,blue,7,green,4,4,red,yellow,orange,darkgrey,115,colours,7,9,Right,0,3,3,3,0,0.776887178421,Right,2016_Jul_21_1239,
8,5,purple,8,brown,4,4,pink,blue,red,green,115,colours,8,5,Left,0,4,4,4,1,0.0978059768677,Left,2016_Jul_21_1239,
12,1,yellow,8,brown,4,4,red,purple,orange,darkgrey,115,colours,8,1,Left,0,5,5,5,1,0.2619099617,Left,2016_Jul_21_1239,
2,8,orange,6,yellow,1,5,green,orange,green,yellow,115,dots,3,2,Left,0,6,6,6,1,0.387609958649,Left,2016_Jul_21_1239,
1,8,pink,6,blue,1,9,green,pink,green,blue,115,dots,4,7,Left,0,7,7,7,0,0.52362203598,Right,2016_Jul_21_1239,
11,1,purple,8,darkgrey,4,4,orange,blue,pink,green,115,colours,8,1,Right,0,8,8,8,1,0.375401973724,Left,2016_Jul_21_1239,
6,7,orange,3,yellow,5,9,green,orange,green,yellow,115,dots,4,8,Left,0,9,9,9,1,0.448486089706,Left,2016_Jul_21_1239,
11,1,purple,7,darkgrey,6,6,orange,blue,pink,green,115,colours,7,1,Right,0,10,10,10,1,0.0382308959961,Left,2016_Jul_21_1239,
5,2,red,4,yellow,1,5,green,red,green,yellow,115,dots,3,7,Right,0,11,11,11,0,0.37285900116,Right,2016_Jul_21_1239,
4,8,red,3,yellow,5,9,green,red,green,yellow,115,dots,4,2,Right,0,12,12,12,0,0.0622029304504,Right,2016_Jul_21_1239,
6,7,pink,3,purple,5,9,darkgrey,pink,darkgrey,purple,115,dots,4,8,Left,0,13,13,13,0,0.276256799698,Right,2016_Jul_21_1239,
2,2,pink,3,yellow,5,1,darkgrey,pink,darkgrey,yellow,115,dots,6,8,Right,0,14,14,14,0,0.905341148376,Right,2016_Jul_21_1239,
10,5,yellow,2,brown,4,4,pink,purple,red,darkgrey,115,colours,2,5,Right,0,15,15,15,1,0.332851886749,Left,2016_Jul_21_1239,
8,5,purple,2,brown,4,4,pink,blue,red,green,115,colours,2,5,Left,0,16,16,16,1,0.375303030014,Left,2016_Jul_21_1239,
7,1,yellow,7,darkgrey,6,6,orange,blue,red,green,115,colours,7,1,Left,0,17,17,17,0,0.528359889984,Right,2016_Jul_21_1239,
9,5,yellow,8,brown,4,4,pink,blue,orange,green,115,colours,8,5,Right,0,18,18,18,0,0.035472869873,Right,2016_Jul_21_1239,
12,9,purple,2,darkgrey,3,3,orange,yellow,red,brown,115,colours,2,9,Right,0,19,19,19,0,0.138185977936,Right,2016_Jul_21_1239,
5,2,red,4,purple,1,5,brown,red,brown,purple,115,dots,3,7,Right,0,20,20,20,0,0.117241859436,Right,2016_Jul_21_1239,
3,2,red,4,purple,9,1,brown,red,brown,purple,115,dots,3,7,Left,0,21,21,21,0,0.520497083664,Right,2016_Jul_21_1239,
1,7,pink,4,blue,9,1,darkgrey,pink,darkgrey,blue,115,dots,6,8,Right,0,22,22,22,0,0.715499162674,Right,2016_Jul_21_1239,
3,2,red,4,purple,9,1,green,red,green,purple,115,dots,3,7,Left,0,23,23,23,0,0.486438989639,Right,2016_Jul_21_1239,
13,6,green,1,blue,8,1,red,blue,red,green,115,dual,6,8,Left,0,24,24,24,0,1.65815711021,Right,2016_Jul_21_1239,
13,6,brown,1,pink,8,1,yellow,yellow,pink,brown,115,dual,6,8,Left,0,25,25,25,0,0.319005966187,Right,2016_Jul_21_1239,
14,6,darkgrey,1,orange,8,1,purple,purple,orange,darkgrey,115,dual,6,8,Left,0,26,26,26,0,0.361748933792,Right,2016_Jul_21_1239,
14,4,green,9,blue,2,9,red,blue,red,green,115,dual,4,2,Left,0,27,27,27,0,0.723875045776,Right,2016_Jul_21_1239,
15,2,purple,4,darkgrey,9,2,orange,darkgrey,purple,orange,115,dual,9,4,Right,0,28,28,28,0,0.134841918945,Right,2016_Jul_21_1239,
15,4,brown,9,pink,2,9,yellow,yellow,pink,brown,115,dual,4,2,Left,0,29,29,29,0,0.321187973022,Right,2016_Jul_21_1239,
16,7,blue,3,green,5,7,red,green,red,blue,115,dual,5,3,Right,0,30,30,30,0,0.292702198029,Right,2016_Jul_21_1239,
16,7,yellow,3,brown,5,7,pink,brown,yellow,pink,115,dual,5,3,Right,0,31,31,31,0,2.33719110489,Right,2016_Jul_21_1239,
17,3,darkgrey,5,orange,7,5,purple,purple,orange,darkgrey,115,dual,3,7,Left,0,32,32,32,1,0.185431957245,Left,2016_Jul_21_1239,
9,1,yellow,7,brown,6,6,pink,blue,orange,green,116,colours,7,1,Right,0,0,0,0,1,0.337914943695,Left,2016_Jul_21_1530,
6,7,orange,3,purple,5,9,green,orange,green,purple,116,dots,4,8,Left,0,1,1,1,0,0.0837910175323,Right,2016_Jul_21_1530,
2,8,orange,6,yellow,1,5,darkgrey,orange,darkgrey,yellow,116,dots,3,2,Left,0,2,2,2,0,0.057098865509,Right,2016_Jul_21_1530,
11,5,blue,2,green,4,4,pink,purple,orange,darkgrey,116,colours,2,5,Left,0,3,3,3,0,0.127179861069,Right,2016_Jul_21_1530,
6,7,red,3,blue,5,9,green,red,green,blue,116,dots,4,8,Left,0,4,4,4,1,1.14652299881,Left,2016_Jul_21_1530,
1,8,pink,6,purple,1,9,green,pink,green,purple,116,dots,4,7,Left,0,5,5,5,0,0.412162065506,Right,2016_Jul_21_1530,
12,1,purple,7,darkgrey,3,3,orange,yellow,red,brown,116,colours,7,1,Right,0,6,6,6,0,0.244006872177,Right,2016_Jul_21_1530,
12,9,purple,2,darkgrey,6,6,orange,yellow,red,brown,116,colours,2,9,Right,0,7,7,7,0,0.154563188553,Right,2016_Jul_21_1530,
1,8,pink,6,blue,1,9,brown,pink,brown,blue,116,dots,4,7,Left,0,8,8,8,1,0.124356985092,Left,2016_Jul_21_1530,
9,5,blue,2,green,4,4,orange,yellow,pink,brown,116,colours,2,5,Left,0,9,9,9,1,0.359549999237,Left,2016_Jul_21_1530,
2,2,pink,3,blue,5,1,green,pink,green,blue,116,dots,6,8,Right,0,10,10,10,0,0.177969932556,Right,2016_Jul_21_1530,
5,2,pink,4,purple,1,5,brown,pink,brown,purple,116,dots,3,7,Right,0,11,11,11,0,0.323534011841,Right,2016_Jul_21_1530,
4,8,orange,3,yellow,5,9,green,orange,green,yellow,116,dots,4,2,Right,0,12,12,12,0,0.158488035202,Right,2016_Jul_21_1530,
8,9,purple,2,brown,3,3,pink,blue,red,green,116,colours,2,9,Left,0,13,13,13,1,0.232618093491,Left,2016_Jul_21_1530,
7,1,blue,2,green,3,3,red,yellow,orange,darkgrey,116,colours,2,1,Right,0,14,14,14,0,0.351404905319,Right,2016_Jul_21_1530,
8,5,purple,2,brown,3,3,pink,blue,red,green,116,colours,2,5,Left,0,15,15,15,0,0.217175960541,Right,2016_Jul_21_1530,
3,7,orange,3,purple,1,9,darkgrey,orange,darkgrey,purple,116,dots,4,2,Right,0,16,16,16,1,0.144520044327,Left,2016_Jul_21_1530,
5,7,red,3,blue,5,1,green,red,green,blue,116,dots,4,2,Left,0,17,17,17,0,0.227311849594,Right,2016_Jul_21_1530,
10,9,purple,7,darkgrey,3,3,red,yellow,pink,brown,116,colours,7,9,Left,0,18,18,18,0,0.0505568981171,Right,2016_Jul_21_1530,
4,2,orange,4,yellow,9,5,darkgrey,orange,darkgrey,yellow,116,dots,3,8,Left,0,19,19,19,0,0.600824117661,Right,2016_Jul_21_1530,
11,9,purple,8,darkgrey,6,6,orange,blue,pink,green,116,colours,8,9,Right,0,20,20,20,1,0.312155008316,Left,2016_Jul_21_1530,
3,2,pink,4,purple,9,1,green,pink,green,purple,116,dots,3,7,Left,0,21,21,21,0,0.380033969879,Right,2016_Jul_21_1530,
7,5,blue,2,green,6,6,red,yellow,orange,darkgrey,116,colours,2,5,Right,0,22,22,22,1,0.50874710083,Left,2016_Jul_21_1530,
10,5,purple,7,darkgrey,4,4,red,yellow,pink,brown,116,colours,7,5,Left,0,23,23,23,0,0.192142009735,Right,2016_Jul_21_1530,
13,6,green,1,blue,8,1,red,blue,red,green,116,dual,6,8,Left,0,24,24,24,1,0.440995931625,Left,2016_Jul_21_1530,
13,6,brown,1,pink,8,1,yellow,yellow,pink,brown,116,dual,6,8,Left,0,25,25,25,0,0.478825092316,Right,2016_Jul_21_1530,
14,2,blue,4,green,9,2,red,green,red,blue,116,dual,9,4,Right,0,26,26,26,0,0.27663397789,Right,2016_Jul_21_1530,
14,8,purple,6,darkgrey,1,8,orange,darkgrey,purple,orange,116,dual,1,6,Right,0,27,27,27,0,0.19339299202,Right,2016_Jul_21_1530,
15,4,darkgrey,9,orange,2,9,purple,purple,orange,darkgrey,116,dual,4,2,Left,0,28,28,28,0,0.530458927155,Right,2016_Jul_21_1530,
15,4,brown,9,pink,2,9,yellow,yellow,pink,brown,116,dual,4,2,Left,0,29,29,29,1,0.396713972092,Left,2016_Jul_21_1530,
16,3,green,5,blue,7,5,red,blue,red,green,116,dual,3,7,Left,0,30,30,30,1,0.276949167252,Left,2016_Jul_21_1530,
16,3,brown,5,pink,7,5,yellow,yellow,pink,brown,116,dual,3,7,Left,0,31,31,31,0,0.93851184845,Right,2016_Jul_21_1530,
17,7,purple,3,darkgrey,5,7,orange,darkgrey,purple,orange,116,dual,5,3,Right,0,32,32,32,0,0.204147100449,Right,2016_Jul_21_1530,
7,1,blue,8,green,6,6,red,yellow,orange,darkgrey,117,colours,8,1,Right,0,0,0,0,1,0.9226770401,Left,2016_Jul_27_1439,
10,9,purple,2,darkgrey,3,3,red,yellow,pink,brown,117,colours,2,9,Left,0,1,1,1,1,0.125169038773,Left,2016_Jul_27_1439,
2,2,orange,3,blue,5,1,green,orange,green,blue,117,dots,6,8,Right,0,2,2,2,1,0.424612998962,Left,2016_Jul_27_1439,
3,2,orange,4,blue,9,1,green,orange,green,blue,117,dots,3,7,Left,0,3,3,3,0,0.511563062668,Right,2016_Jul_27_1439,
6,8,red,4,purple,9,5,green,red,green,purple,117,dots,3,7,Right,0,4,4,4,0,0.45129108429,Right,2016_Jul_27_1439,
12,1,yellow,8,brown,6,6,red,purple,orange,darkgrey,117,colours,8,1,Left,0,5,5,5,1,0.257140159607,Left,2016_Jul_27_1439,
1,7,orange,4,yellow,9,1,darkgrey,orange,darkgrey,yellow,117,dots,6,8,Right,0,6,6,6,0,0.190505981445,Right,2016_Jul_27_1439,
2,2,red,3,blue,5,1,brown,red,brown,blue,117,dots,6,8,Right,0,7,7,7,0,1.26394891739,Right,2016_Jul_27_1439,
4,2,orange,4,purple,9,5,brown,orange,brown,purple,117,dots,3,8,Left,0,8,8,8,1,0.212625980377,Left,2016_Jul_27_1439,
8,5,blue,8,green,6,6,red,purple,pink,brown,117,colours,8,5,Right,0,9,9,9,1,0.156408071518,Left,2016_Jul_27_1439,
11,5,purple,7,darkgrey,6,6,orange,blue,pink,green,117,colours,7,5,Right,0,10,10,10,0,0.198873996735,Right,2016_Jul_27_1439,
1,7,pink,4,blue,9,1,darkgrey,pink,darkgrey,blue,117,dots,6,8,Right,0,11,11,11,1,0.31049990654,Left,2016_Jul_27_1439,
12,1,yellow,8,brown,4,4,red,purple,orange,darkgrey,117,colours,8,1,Left,0,12,12,12,1,0.506142854691,Left,2016_Jul_27_1439,
4,8,orange,3,yellow,5,9,darkgrey,orange,darkgrey,yellow,117,dots,4,2,Right,0,13,13,13,1,0.398154973984,Left,2016_Jul_27_1439,
5,7,pink,3,blue,5,1,brown,pink,brown,blue,117,dots,4,2,Left,0,14,14,14,0,0.109275102615,Right,2016_Jul_27_1439,
9,5,yellow,8,brown,3,3,pink,blue,orange,green,117,colours,8,5,Right,0,15,15,15,1,0.185770988464,Left,2016_Jul_27_1439,
5,7,orange,3,purple,5,1,brown,orange,brown,purple,117,dots,4,2,Left,0,16,16,16,1,0.170542955399,Left,2016_Jul_27_1439,
7,1,yellow,7,darkgrey,6,6,orange,blue,red,green,117,colours,7,1,Left,0,17,17,17,0,0.1079621315,Right,2016_Jul_27_1439,
11,9,purple,8,darkgrey,4,4,orange,blue,pink,green,117,colours,8,9,Right,0,18,18,18,0,0.0162100791931,Right,2016_Jul_27_1439,
10,1,purple,8,darkgrey,6,6,red,yellow,pink,brown,117,colours,8,1,Left,0,19,19,19,0,4.53571081161,Right,2016_Jul_27_1439,
6,7,red,3,yellow,5,9,darkgrey,red,darkgrey,yellow,117,dots,4,8,Left,0,20,20,20,0,0.269745111465,Right,2016_Jul_27_1439,
8,5,purple,2,brown,6,6,pink,blue,red,green,117,colours,2,5,Left,0,21,21,21,0,0.0427939891815,Right,2016_Jul_27_1439,
3,7,pink,3,blue,1,9,green,pink,green,blue,117,dots,4,2,Right,0,22,22,22,1,0.41764998436,Left,2016_Jul_27_1439,
9,9,yellow,7,brown,3,3,pink,blue,orange,green,117,colours,7,9,Right,0,23,23,23,1,0.376908063889,Left,2016_Jul_27_1439,
13,8,yellow,6,brown,1,8,pink,brown,yellow,pink,117,dual,1,6,Right,0,24,24,24,0,0.130284070969,Right,2016_Jul_27_1439,
13,8,blue,6,green,1,8,red,green,red,blue,117,dual,1,6,Right,0,25,25,25,0,0.125000953674,Right,2016_Jul_27_1439,
14,6,darkgrey,1,orange,8,1,purple,purple,orange,darkgrey,117,dual,6,8,Left,0,26,26,26,0,0.200361013412,Right,2016_Jul_27_1439,
14,4,green,9,blue,2,9,red,blue,red,green,117,dual,4,2,Left,0,27,27,27,0,0.744112014771,Right,2016_Jul_27_1439,
15,4,brown,9,pink,2,9,yellow,yellow,pink,brown,117,dual,4,2,Left,0,28,28,28,0,0.234231948853,Right,2016_Jul_27_1439,
15,4,darkgrey,9,orange,2,9,purple,purple,orange,darkgrey,117,dual,4,2,Left,0,29,29,29,0,0.0329101085663,Right,2016_Jul_27_1439,
16,7,blue,3,green,5,7,red,green,red,blue,117,dual,5,3,Right,0,30,30,30,1,0.871633052826,Left,2016_Jul_27_1439,
16,7,yellow,3,brown,5,7,pink,brown,yellow,pink,117,dual,5,3,Right,0,31,31,31,0,0.228472948074,Right,2016_Jul_27_1439,
17,7,purple,3,darkgrey,5,7,orange,darkgrey,purple,orange,117,dual,5,3,Right,0,32,32,32,1,0.331559896469,Left,2016_Jul_27_1439,
8,5,purple,7,brown,6,6,pink,blue,red,green,118,colours,7,5,Left,0,0,0,0,0,1.0565290451,Right,2016_Aug_04_1343,
1,8,orange,6,purple,1,9,brown,orange,brown,purple,118,dots,4,7,Left,0,1,1,1,1,0.709546089172,Left,2016_Aug_04_1343,
11,1,blue,8,green,3,3,pink,purple,orange,darkgrey,118,colours,8,1,Left,0,2,2,2,0,0.209036827087,Right,2016_Aug_04_1343,
5,7,pink,3,blue,5,1,brown,pink,brown,blue,118,dots,4,2,Left,0,3,3,3,0,0.640453100204,Right,2016_Aug_04_1343,
12,5,purple,7,darkgrey,4,4,orange,yellow,red,brown,118,colours,7,5,Right,0,4,4,4,0,0.407127857208,Right,2016_Aug_04_1343,
2,2,red,3,purple,5,1,brown,red,brown,purple,118,dots,6,8,Right,0,5,5,5,0,0.262918949127,Right,2016_Aug_04_1343,
9,9,yellow,7,brown,6,6,pink,blue,orange,green,118,colours,7,9,Right,0,6,6,6,0,0.388731956482,Right,2016_Aug_04_1343,
6,8,orange,4,blue,9,5,brown,orange,brown,blue,118,dots,3,7,Right,0,7,7,7,0,0.109024047852,Right,2016_Aug_04_1343,
11,9,blue,8,green,6,6,pink,purple,orange,darkgrey,118,colours,8,9,Left,0,8,8,8,0,0.617635965347,Right,2016_Aug_04_1343,
5,2,red,4,purple,1,5,green,red,green,purple,118,dots,3,7,Right,0,9,9,9,0,1.56853508949,Right,2016_Aug_04_1343,
4,8,orange,3,purple,5,9,darkgrey,orange,darkgrey,purple,118,dots,4,2,Right,0,10,10,10,1,1.19216585159,Left,2016_Aug_04_1343,
12,5,purple,2,darkgrey,4,4,orange,yellow,red,brown,118,colours,2,5,Right,0,11,11,11,0,0.215959072113,Right,2016_Aug_04_1343,
2,2,pink,3,yellow,5,1,green,pink,green,yellow,118,dots,6,8,Right,0,12,12,12,1,0.671326875687,Left,2016_Aug_04_1343,
1,8,red,6,purple,1,9,darkgrey,red,darkgrey,purple,118,dots,4,7,Left,0,13,13,13,1,0.491760969162,Left,2016_Aug_04_1343,
6,8,orange,4,blue,9,5,green,orange,green,blue,118,dots,3,7,Right,0,14,14,14,1,0.0962109565735,Left,2016_Aug_04_1343,
10,1,purple,8,darkgrey,6,6,red,yellow,pink,brown,118,colours,8,1,Left,0,15,15,15,1,0.724466085434,Left,2016_Aug_04_1343,
8,5,blue,8,green,3,3,red,purple,pink,brown,118,colours,8,5,Right,0,16,16,16,0,0.711930036545,Right,2016_Aug_04_1343,
3,2,pink,4,blue,9,1,green,pink,green,blue,118,dots,3,7,Left,0,17,17,17,0,0.659258127213,Right,2016_Aug_04_1343,
4,2,red,4,yellow,9,5,green,red,green,yellow,118,dots,3,8,Left,0,18,18,18,0,0.568950891495,Right,2016_Aug_04_1343,
3,2,orange,4,yellow,9,1,darkgrey,orange,darkgrey,yellow,118,dots,3,7,Left,0,19,19,19,0,0.649680137634,Right,2016_Aug_04_1343,
9,5,blue,8,green,3,3,orange,yellow,pink,brown,118,colours,8,5,Left,0,20,20,20,1,0.271085977554,Left,2016_Aug_04_1343,
7,1,yellow,8,darkgrey,3,3,orange,blue,red,green,118,colours,8,1,Left,0,21,21,21,0,0.0679950714111,Right,2016_Aug_04_1343,
10,5,purple,7,darkgrey,6,6,red,yellow,pink,brown,118,colours,7,5,Left,0,22,22,22,1,1.25029706955,Left,2016_Aug_04_1343,
7,1,yellow,7,darkgrey,4,4,orange,blue,red,green,118,colours,7,1,Left,0,23,23,23,0,1.17503499985,Right,2016_Aug_04_1343,
13,6,brown,1,pink,8,1,yellow,yellow,pink,brown,118,dual,6,8,Left,0,24,24,24,0,0.390714168549,Right,2016_Aug_04_1343,
13,8,blue,6,green,1,8,red,green,red,blue,118,dual,1,6,Right,0,25,25,25,0,0.783519983292,Right,2016_Aug_04_1343,
14,8,purple,6,darkgrey,1,8,orange,darkgrey,purple,orange,118,dual,1,6,Right,0,26,26,26,0,1.28768014908,Right,2016_Aug_04_1343,
14,4,green,9,blue,2,9,red,blue,red,green,118,dual,4,2,Left,0,27,27,27,0,0.354421138763,Right,2016_Aug_04_1343,
15,2,purple,4,darkgrey,9,2,orange,darkgrey,purple,orange,118,dual,9,4,Right,0,28,28,28,0,0.940855979919,Right,2016_Aug_04_1343,
15,2,yellow,4,brown,9,2,pink,brown,yellow,pink,118,dual,9,4,Right,0,29,29,29,0,0.814957141876,Right,2016_Aug_04_1343,
16,7,blue,3,green,5,7,red,green,red,blue,118,dual,5,3,Right,0,30,30,30,1,0.525491952896,Left,2016_Aug_04_1343,
16,7,yellow,3,brown,5,7,pink,brown,yellow,pink,118,dual,5,3,Right,0,31,31,31,0,0.400294065475,Right,2016_Aug_04_1343,
17,3,darkgrey,5,orange,7,5,purple,purple,orange,darkgrey,118,dual,3,7,Left,0,32,32,32,0,0.376320838928,Right,2016_Aug_04_1343,
